"Time (s)","Acceleration x (m/s^2)","Acceleration y (m/s^2)","Acceleration z (m/s^2)"
6.965108100E-2,8.075776696E-2,-1.208375469E-1,9.752547264E0
1.196510810E-1,8.554340899E-2,-1.016949639E-1,9.756733894E0
1.696510810E-1,9.032905847E-2,-1.064806059E-1,9.747162819E0
2.196510810E-1,6.640082598E-2,-1.058823988E-1,9.766305923E0
2.696510810E-1,8.075776696E-2,-1.112662554E-1,9.751948357E0
3.196510810E-1,8.075776696E-2,-1.064806059E-1,9.761520386E0
3.696510810E-1,8.554340899E-2,-9.212367237E-2,9.756733894E0
4.196510810E-1,8.075776696E-2,-9.690931439E-2,9.775876999E0
4.696510810E-1,7.118647546E-2,-9.212367237E-2,9.757332802E0
5.196510810E-1,8.075776696E-2,-9.690931439E-2,9.742975235E0
5.696510810E-1,9.032905847E-2,-9.690931439E-2,9.752547264E0
6.196510810E-1,7.118647546E-2,-1.351944804E-1,9.776474953E0
6.696510810E-1,5.204389244E-2,-5.324030295E-2,9.737591743E0
7.196510810E-1,9.511470050E-2,-7.298108935E-2,9.728618622E0
7.696510810E-1,9.511470050E-2,-6.819544733E-2,9.751948357E0
8.196510810E-1,8.075776696E-2,-7.298108935E-2,9.747162819E0
8.696510810E-1,8.554340899E-2,-1.016949639E-1,9.786046028E0
9.196510810E-1,8.075776696E-2,-7.776673883E-2,9.747760773E0
9.696510810E-1,7.597211748E-2,-6.819544733E-2,9.756733894E0
1.019651081E0,7.597211748E-2,-1.064806059E-1,9.780662537E0
1.069651081E0,1.088734269E-1,-1.830509305E-1,9.742975235E0
1.119651081E0,-1.417747438E-1,-4.983053207E-1,9.829715729E0
1.169651081E0,-6.400800496E-2,-1.680957973E-1,9.700503349E0
1.219651081E0,1.806581169E-1,-2.452643216E-1,9.786046028E0
1.269651081E0,5.623133108E-2,-1.351944804E-1,9.747760773E0
1.319651081E0,9.032905847E-2,-3.948157281E-2,9.742975235E0
1.369651081E0,7.657032460E-2,8.973085135E-2,9.756733894E0
1.419651081E0,1.046859920E-1,-2.033899166E-2,9.719047546E0
1.469651081E0,4.247260094E-2,-7.238288224E-2,9.747760773E0
1.519651081E0,8.554340899E-2,-7.776673883E-2,9.766903877E0
1.569651081E0,8.494520187E-2,-1.304088384E-1,9.762118340E0
1.619651081E0,6.640082598E-2,-8.255238086E-2,9.781260490E0
1.669651081E0,7.597211748E-2,-7.298108935E-2,9.762118340E0
1.719651081E0,7.537391037E-2,-9.212367237E-2,9.747760773E0
1.769651081E0,6.580262631E-2,-1.064806059E-1,9.752547264E0
1.819651081E0,7.058826834E-2,-1.256231815E-1,9.752547264E0
1.869651081E0,6.580262631E-2,-1.160518974E-1,9.762118340E0
1.919651081E0,7.537391037E-2,-1.160518974E-1,9.738189697E0
1.969651081E0,7.058826834E-2,-9.690931439E-2,9.757332802E0
2.019651081E0,7.058826834E-2,-1.064806059E-1,9.757332802E0
2.069651081E0,7.118647546E-2,-9.690931439E-2,9.786046028E0
2.119651081E0,6.580262631E-2,-1.064806059E-1,9.738189697E0
2.169651081E0,6.580262631E-2,-1.160518974E-1,9.742975235E0
2.219651081E0,8.973085135E-2,-1.304088384E-1,9.762118340E0
2.269651081E0,8.015955985E-2,-1.016949639E-1,9.757332802E0
2.319651081E0,5.682953820E-2,-8.255238086E-2,9.757332802E0
2.369651081E0,7.058826834E-2,-9.690931439E-2,9.747760773E0
2.419651081E0,6.580262631E-2,-1.639083475E-1,9.719047546E0
2.469651081E0,5.204389244E-2,-9.212367237E-2,9.757332802E0
2.519651081E0,1.094716340E-1,-6.340979785E-2,9.762118340E0
2.569651081E0,8.015955985E-2,-1.016949639E-1,9.733404160E0
2.619651081E0,5.144568533E-2,-1.830509305E-1,9.781260490E0
2.669651081E0,8.494520187E-2,-1.016949639E-1,9.781260490E0
2.719651081E0,8.494520187E-2,-1.160518974E-1,9.776474953E0
2.769651081E0,7.058826834E-2,-1.160518974E-1,9.766903877E0
2.819651081E0,7.537391037E-2,-1.112662554E-1,9.738189697E0
2.869651081E0,8.015955985E-2,-1.208375469E-1,9.757332802E0
2.919651081E0,8.015955985E-2,-1.208375469E-1,9.766903877E0
2.969651081E0,7.058826834E-2,-1.256231815E-1,9.766903877E0
3.019651081E0,7.058826834E-2,-1.208375469E-1,9.757332802E0
3.069651081E0,6.580262631E-2,-1.160518974E-1,9.757332802E0
3.119651081E0,7.058826834E-2,-1.208375469E-1,9.742975235E0
3.169651081E0,7.058826834E-2,-1.208375469E-1,9.766903877E0
3.219651081E0,7.058826834E-2,-1.160518974E-1,9.771689415E0
3.269651081E0,7.537391037E-2,-1.112662554E-1,9.762118340E0
3.319651081E0,8.015955985E-2,-1.160518974E-1,9.752547264E0
3.369651081E0,1.190429255E-1,-8.255238086E-2,9.852447510E0
3.419651081E0,1.094716340E-1,-1.555334684E-2,9.776474953E0
3.469651081E0,8.015955985E-2,-7.776673883E-2,9.709476471E0
3.519651081E0,4.187439755E-2,-1.447657645E-1,9.762118340E0
3.569651081E0,8.015955985E-2,-1.447657645E-1,9.762118340E0
3.619651081E0,7.537391037E-2,-1.112662554E-1,9.766903877E0
3.669651081E0,7.058826834E-2,-1.064806059E-1,9.762118340E0
3.719651081E0,8.494520187E-2,-1.016949639E-1,9.776474953E0
3.769651081E0,7.058826834E-2,-1.112662554E-1,9.776474953E0
3.819651081E0,7.058826834E-2,-1.208375469E-1,9.771689415E0
3.869651081E0,6.101697683E-2,-8.733802289E-2,9.771689415E0
3.919651081E0,7.537391037E-2,-1.016949639E-1,9.728618622E0
3.969651081E0,4.546362907E-2,-1.728814393E-1,9.638289452E0
4.019651081E0,-4.905286431E-2,-1.202393398E-1,9.743574142E0
4.069651081E0,1.854437590E-1,-1.310070455E-1,9.719047546E0
4.119651081E0,2.333002165E-2,1.316052489E-2,9.747760773E0
4.169651081E0,1.232303679E-1,-1.112662554E-1,9.762118340E0
4.219651081E0,7.058826834E-2,-1.208375469E-1,9.757332802E0
4.269651081E0,7.058826834E-2,-1.686939895E-1,9.776474953E0
4.319651081E0,8.015955985E-2,-1.686939895E-1,9.771689415E0
4.369651081E0,7.537391037E-2,-1.591227055E-1,9.781260490E0
4.419651081E0,7.058826834E-2,-1.016949639E-1,9.738189697E0
4.469651081E0,8.015955985E-2,-9.212367237E-2,9.757332802E0
4.519651081E0,7.537391037E-2,-1.016949639E-1,9.766903877E0
4.569651081E0,7.058826834E-2,-1.208375469E-1,9.781260490E0
4.619651081E0,7.058826834E-2,-1.208375469E-1,9.757332802E0
4.669651081E0,8.973085135E-2,-1.112662554E-1,9.771689415E0
4.719651081E0,8.494520187E-2,-1.399801224E-1,9.757930756E0
4.769651081E0,8.494520187E-2,-1.160518974E-1,9.757332802E0
4.819651081E0,7.118647546E-2,3.589233849E-3,9.714262009E0
4.869651081E0,1.381855011E-1,-3.948157281E-2,9.742975235E0
4.919651081E0,4.187439755E-2,-1.304088384E-1,9.766903877E0
4.969651081E0,8.494520187E-2,-1.686939895E-1,9.786046028E0
5.019651081E0,6.580262631E-2,-1.304088384E-1,9.762118340E0
5.069651081E0,5.144568533E-2,-1.112662554E-1,9.771689415E0
5.119651081E0,8.494520187E-2,-9.690931439E-2,9.771689415E0
5.169651081E0,7.537391037E-2,-1.112662554E-1,9.771689415E0
5.219651081E0,7.537391037E-2,-9.212367237E-2,9.752547264E0
5.269651081E0,7.058826834E-2,-1.208375469E-1,9.771689415E0
5.319651081E0,7.537391037E-2,-1.160518974E-1,9.743574142E0
5.369651081E0,7.537391037E-2,-1.208375469E-1,9.781260490E0
5.419651081E0,7.058826834E-2,-1.112662554E-1,9.767501831E0
5.469651081E0,7.058826834E-2,-1.016949639E-1,9.757332802E0
5.519651081E0,6.580262631E-2,-1.208375469E-1,9.762118340E0
5.569651081E0,5.623133108E-2,-1.304088384E-1,9.753145218E0
5.619651081E0,6.101697683E-2,-1.304088384E-1,9.767501831E0
5.669651081E0,8.015955985E-2,-1.256231815E-1,9.748359680E0
5.719651081E0,6.101697683E-2,-1.256231815E-1,9.771689415E0
5.769651081E0,7.537391037E-2,-1.208375469E-1,9.781260490E0
5.819651081E0,8.973085135E-2,-1.160518974E-1,9.757930756E0
5.869651081E0,7.058826834E-2,-1.208375469E-1,9.752547264E0
5.919651081E0,8.494520187E-2,-1.112662554E-1,9.771689415E0
5.969651081E0,8.015955985E-2,-1.016949639E-1,9.762118340E0
6.019651081E0,7.537391037E-2,-1.160518974E-1,9.757332802E0
6.069651081E0,8.015955985E-2,-1.016949639E-1,9.762716293E0
6.119651081E0,6.101697683E-2,-1.160518974E-1,9.781260490E0
6.169651081E0,7.537391037E-2,-1.208375469E-1,9.743574142E0
6.219651081E0,7.058826834E-2,-1.112662554E-1,9.753145218E0
6.269651081E0,7.537391037E-2,-1.064806059E-1,9.762716293E0
6.319651081E0,3.708875179E-2,-1.351944804E-1,9.781859398E0
6.369651081E0,8.973085135E-2,-1.016949639E-1,9.743574142E0
6.419651081E0,8.015955985E-2,-8.733802289E-2,9.762118340E0
6.469651081E0,7.537391037E-2,-9.690931439E-2,9.753145218E0
6.519651081E0,8.973085135E-2,-1.064806059E-1,9.767501831E0
6.569651081E0,6.580262631E-2,-1.064806059E-1,9.762716293E0
6.619651081E0,6.580262631E-2,-1.160518974E-1,9.762716293E0
6.669651081E0,6.101697683E-2,-1.160518974E-1,9.767501831E0
6.719651081E0,6.580262631E-2,-1.256231815E-1,9.767501831E0
6.769651081E0,7.058826834E-2,-1.112662554E-1,9.757930756E0
6.819651081E0,7.058826834E-2,-1.256231815E-1,9.777072906E0
6.869651081E0,7.058826834E-2,-1.112662554E-1,9.772287369E0
6.919651081E0,7.058826834E-2,-1.304088384E-1,9.786644936E0
6.969651081E0,8.015955985E-2,-1.160518974E-1,9.753145218E0
7.019651081E0,8.015955985E-2,-7.298108935E-2,9.767501831E0
7.069651081E0,8.973085135E-2,-9.690931439E-2,9.757930756E0
7.119651081E0,7.058826834E-2,-1.304088384E-1,9.777072906E0
7.169651081E0,7.058826834E-2,-1.208375469E-1,9.772287369E0
7.219651081E0,8.494520187E-2,-1.112662554E-1,9.757332802E0
7.269651081E0,6.580262631E-2,-1.160518974E-1,9.771689415E0
7.319651081E0,9.870393574E-2,-1.304088384E-1,9.762716293E0
7.369651081E0,8.434699476E-2,-1.591227055E-1,9.781859398E0
7.419651081E0,4.666004330E-2,-8.255238086E-2,9.743574142E0
7.469651081E0,6.999006122E-2,-1.495514214E-1,9.738788605E0
7.519651081E0,6.640082598E-2,-5.862415582E-2,9.819545746E0
7.569651081E0,8.913264424E-2,-1.208375469E-1,9.729216576E0
7.619651081E0,6.580262631E-2,-8.733802289E-2,9.743574142E0
7.669651081E0,6.520441920E-2,-9.690931439E-2,9.743574142E0
7.719651081E0,7.956135273E-2,-1.064806059E-1,9.738788605E0
7.769651081E0,5.563312769E-2,-1.399801224E-1,9.757930756E0
7.819651081E0,8.015955985E-2,-1.064806059E-1,9.767501831E0
7.869651081E0,5.563312769E-2,-1.351944804E-1,9.772287369E0
7.919651081E0,7.537391037E-2,-9.212367237E-2,9.743574142E0
7.969651081E0,8.015955985E-2,-1.016949639E-1,9.786644936E0
8.019651081E0,7.477571070E-2,-1.112662554E-1,9.753145218E0
8.069651081E0,7.058826834E-2,-1.016949639E-1,9.767501831E0
8.119651081E0,6.041877344E-2,-1.064806059E-1,9.757930756E0
8.169651081E0,5.623133108E-2,-1.160518974E-1,9.777072906E0
8.219651081E0,8.015955985E-2,-1.112662554E-1,9.781859398E0
8.269651081E0,8.434699476E-2,-1.208375469E-1,9.762716293E0
8.319651081E0,7.058826834E-2,-1.208375469E-1,9.781859398E0
8.369651081E0,7.956135273E-2,-1.208375469E-1,9.753145218E0
8.419651081E0,6.999006122E-2,-1.256231815E-1,9.757930756E0
8.469651081E0,6.999006122E-2,-1.208375469E-1,9.767501831E0
8.519651081E0,7.058826834E-2,-1.064806059E-1,9.777072906E0
8.569651081E0,7.477571070E-2,-1.160518974E-1,9.772287369E0
8.619651081E0,7.477571070E-2,-1.208375469E-1,9.757930756E0
8.669651081E0,7.477571070E-2,-1.016949639E-1,9.757930756E0
8.719651081E0,7.058826834E-2,-9.690931439E-2,9.762716293E0
8.769651081E0,6.101697683E-2,-1.064806059E-1,9.777072906E0
8.819651081E0,6.520441920E-2,-1.064806059E-1,9.748359680E0
8.869651081E0,7.537391037E-2,-1.160518974E-1,9.777072906E0
8.919651081E0,8.434699476E-2,-1.160518974E-1,9.757930756E0
8.969651081E0,7.477571070E-2,-1.351944804E-1,9.772287369E0
9.019651081E0,6.999006122E-2,-1.208375469E-1,9.772287369E0
9.069651081E0,7.477571070E-2,-1.112662554E-1,9.753145218E0
9.119651081E0,8.015955985E-2,-9.690931439E-2,9.767501831E0
9.169651081E0,8.015955985E-2,-1.016949639E-1,9.762716293E0
9.219651081E0,7.956135273E-2,-1.208375469E-1,9.767501831E0
9.269651081E0,7.477571070E-2,-1.208375469E-1,9.753145218E0
9.319651081E0,7.956135273E-2,-1.304088384E-1,9.762716293E0
9.369651081E0,7.477571070E-2,-1.160518974E-1,9.757930756E0
9.419651081E0,6.999006122E-2,-1.256231815E-1,9.757930756E0
9.469651081E0,7.956135273E-2,-1.118644550E-1,9.777072906E0
9.519651081E0,6.999006122E-2,-1.064806059E-1,9.757930756E0
9.569651081E0,8.973085135E-2,-1.112662554E-1,9.767501831E0
9.619651081E0,7.956135273E-2,-1.256231815E-1,9.767501831E0
9.669651081E0,7.537391037E-2,-1.064806059E-1,9.781859398E0
9.719651081E0,7.537391037E-2,-1.112662554E-1,9.772287369E0
9.769651081E0,7.537391037E-2,-9.212367237E-2,9.753145218E0
9.819651081E0,6.520441920E-2,-1.064806059E-1,9.762716293E0
9.869651081E0,6.999006122E-2,-1.160518974E-1,9.772287369E0
9.919651081E0,6.999006122E-2,-1.304088384E-1,9.762716293E0
9.969651081E0,7.956135273E-2,-1.160518974E-1,9.772287369E0
1.001965108E1,6.520441920E-2,-1.064806059E-1,9.762716293E0
1.006965108E1,8.494520187E-2,-1.112662554E-1,9.772287369E0
1.011965108E1,7.956135273E-2,-1.208375469E-1,9.767501831E0
1.016965108E1,8.434699476E-2,-1.208375469E-1,9.772287369E0
1.021965108E1,7.956135273E-2,-1.112662554E-1,9.762716293E0
1.026965108E1,6.520441920E-2,-1.208375469E-1,9.767501831E0
1.031965108E1,7.477571070E-2,-1.064806059E-1,9.767501831E0
1.036965108E1,8.494520187E-2,-1.262213886E-1,9.781859398E0
1.041965108E1,8.434699476E-2,-1.256231815E-1,9.762716293E0
1.046965108E1,6.520441920E-2,-1.112662554E-1,9.762716293E0
1.051965108E1,7.537391037E-2,-1.160518974E-1,9.772287369E0
1.056965108E1,6.999006122E-2,-1.208375469E-1,9.772287369E0
1.061965108E1,7.058826834E-2,-1.064806059E-1,9.767501831E0
1.066965108E1,7.956135273E-2,-1.256231815E-1,9.767501831E0
1.071965108E1,9.870393574E-2,-1.214357466E-1,9.757930756E0
1.076965108E1,8.494520187E-2,-1.214357466E-1,9.781859398E0
1.081965108E1,8.494520187E-2,-1.208375469E-1,9.777072906E0
1.086965108E1,6.580262631E-2,-1.064806059E-1,9.757930756E0
1.091965108E1,6.999006122E-2,-1.160518974E-1,9.767501831E0
1.096965108E1,6.041877344E-2,-1.256231815E-1,9.743574142E0
1.101965108E1,7.477571070E-2,-1.208375469E-1,9.767501831E0
1.106965108E1,6.999006122E-2,-1.208375469E-1,9.777072906E0
1.111965108E1,7.477571070E-2,-1.112662554E-1,9.762716293E0
1.116965108E1,7.537391037E-2,-1.160518974E-1,9.772287369E0
1.121965108E1,7.537391037E-2,-1.016949639E-1,9.767501831E0
1.126965108E1,9.391828626E-2,-1.118644550E-1,9.767501831E0
1.131965108E1,7.477571070E-2,-1.112662554E-1,9.767501831E0
1.136965108E1,8.913264424E-2,-1.166501045E-1,9.767501831E0
1.141965108E1,6.520441920E-2,-1.208375469E-1,9.762716293E0
1.146965108E1,6.520441920E-2,-1.208375469E-1,9.762716293E0
1.151965108E1,7.537391037E-2,-1.208375469E-1,9.781859398E0
1.156965108E1,6.101697683E-2,-1.112662554E-1,9.786644936E0
1.161965108E1,6.101697683E-2,-1.112662554E-1,9.791430473E0
1.166965108E1,6.580262631E-2,-1.016949639E-1,9.757930756E0
1.171965108E1,7.058826834E-2,-1.112662554E-1,9.791430473E0
1.176965108E1,6.999006122E-2,-1.256231815E-1,9.767501831E0
1.181965108E1,6.580262631E-2,-1.160518974E-1,9.781859398E0
1.186965108E1,7.058826834E-2,-1.160518974E-1,9.786644936E0
1.191965108E1,8.434699476E-2,-1.160518974E-1,9.743574142E0
1.196965108E1,8.434699476E-2,-1.160518974E-1,9.757930756E0
1.201965108E1,7.956135273E-2,-1.208375469E-1,9.762716293E0
1.206965108E1,6.999006122E-2,-1.256231815E-1,9.767501831E0
1.211965108E1,6.999006122E-2,-1.112662554E-1,9.753145218E0
1.216965108E1,6.999006122E-2,-1.160518974E-1,9.757930756E0
1.221965108E1,7.956135273E-2,-1.262213886E-1,9.781859398E0
1.226965108E1,6.041877344E-2,-1.304088384E-1,9.767501831E0
1.231965108E1,6.999006122E-2,-1.160518974E-1,9.748359680E0
1.236965108E1,7.956135273E-2,-1.208375469E-1,9.753145218E0
1.241965108E1,7.477571070E-2,-1.064806059E-1,9.757930756E0
1.246965108E1,6.999006122E-2,-1.208375469E-1,9.767501831E0
1.251965108E1,6.041877344E-2,-1.208375469E-1,9.777072906E0
1.256965108E1,6.999006122E-2,-1.160518974E-1,9.777072906E0
1.261965108E1,8.973085135E-2,-1.070788130E-1,9.772287369E0
1.266965108E1,6.520441920E-2,-1.016949639E-1,9.757930756E0
1.271965108E1,8.015955985E-2,-1.016949639E-1,9.757930756E0
1.276965108E1,7.477571070E-2,-1.112662554E-1,9.772287369E0
1.281965108E1,7.956135273E-2,-1.160518974E-1,9.748359680E0
1.286965108E1,8.015955985E-2,-1.166501045E-1,9.791430473E0
1.291965108E1,8.434699476E-2,-1.160518974E-1,9.762716293E0
1.296965108E1,7.477571070E-2,-1.166501045E-1,9.777072906E0
1.301965108E1,7.477571070E-2,-1.208375469E-1,9.753145218E0
1.306965108E1,7.537391037E-2,-1.016949639E-1,9.781859398E0
1.311965108E1,7.477571070E-2,-1.304088384E-1,9.777072906E0
1.316965108E1,7.058826834E-2,-1.016949639E-1,9.772287369E0
1.321965108E1,8.913264424E-2,-1.118644550E-1,9.748359680E0
1.326965108E1,7.058826834E-2,-1.064806059E-1,9.777072906E0
1.331965108E1,6.999006122E-2,-1.160518974E-1,9.762716293E0
1.336965108E1,7.477571070E-2,-1.208375469E-1,9.757930756E0
1.341965108E1,7.058826834E-2,-1.112662554E-1,9.767501831E0
1.346965108E1,7.537391037E-2,-1.016949639E-1,9.777072906E0
1.351965108E1,6.999006122E-2,-1.256231815E-1,9.767501831E0
1.356965108E1,7.956135273E-2,-1.160518974E-1,9.767501831E0
1.361965108E1,7.477571070E-2,-1.064806059E-1,9.762716293E0
1.366965108E1,8.015955985E-2,-1.064806059E-1,9.767501831E0
1.371965108E1,6.999006122E-2,-1.160518974E-1,9.757930756E0
1.376965108E1,6.520441920E-2,-1.112662554E-1,9.753145218E0
1.381965108E1,6.999006122E-2,-1.256231815E-1,9.772287369E0
1.386965108E1,6.999006122E-2,-1.208375469E-1,9.757930756E0
1.391965108E1,6.520441920E-2,-1.160518974E-1,9.767501831E0
1.396965108E1,7.058826834E-2,-1.160518974E-1,9.781859398E0
1.401965108E1,6.999006122E-2,-1.160518974E-1,9.762716293E0
1.406965108E1,8.434699476E-2,-1.310070455E-1,9.767501831E0
1.411965108E1,7.956135273E-2,-1.112662554E-1,9.748359680E0
1.416965108E1,7.956135273E-2,-1.208375469E-1,9.767501831E0
1.421965108E1,6.999006122E-2,-1.256231815E-1,9.772287369E0
1.426965108E1,7.956135273E-2,-1.214357466E-1,9.781859398E0
1.431965108E1,7.477571070E-2,-1.160518974E-1,9.767501831E0
1.436965108E1,7.058826834E-2,-9.212367237E-2,9.777072906E0
1.441965108E1,7.537391037E-2,-1.112662554E-1,9.781859398E0
1.446965108E1,6.999006122E-2,-1.208375469E-1,9.772287369E0
1.451965108E1,6.041877344E-2,-1.256231815E-1,9.762716293E0
1.456965108E1,6.999006122E-2,-1.160518974E-1,9.762716293E0
1.461965108E1,7.956135273E-2,-1.064806059E-1,9.757930756E0
1.466965108E1,7.058826834E-2,-1.016949639E-1,9.777072906E0
1.471965108E1,7.537391037E-2,-1.064806059E-1,9.772287369E0
1.476965108E1,7.477571070E-2,-1.112662554E-1,9.762716293E0
1.481965108E1,6.999006122E-2,-1.112662554E-1,9.767501831E0
1.486965108E1,9.451649338E-2,-1.070788130E-1,9.772287369E0
1.491965108E1,7.956135273E-2,-1.064806059E-1,9.753145218E0
1.496965108E1,7.477571070E-2,-1.016949639E-1,9.757930756E0
1.501965108E1,6.999006122E-2,-1.064806059E-1,9.767501831E0
1.506965108E1,6.999006122E-2,-1.208375469E-1,9.753145218E0
1.511965108E1,7.956135273E-2,-1.256231815E-1,9.772287369E0
1.516965108E1,6.520441920E-2,-1.256231815E-1,9.762716293E0
1.521965108E1,7.058826834E-2,-1.112662554E-1,9.777072906E0
1.526965108E1,7.477571070E-2,-1.208375469E-1,9.753145218E0
1.531965108E1,7.477571070E-2,-1.208375469E-1,9.767501831E0
1.536965108E1,8.015955985E-2,-1.064806059E-1,9.767501831E0
1.541965108E1,8.494520187E-2,-1.112662554E-1,9.762716293E0
1.546965108E1,6.580262631E-2,-1.016949639E-1,9.767501831E0
1.551965108E1,7.537391037E-2,-1.064806059E-1,9.767501831E0
1.556965108E1,6.520441920E-2,-1.160518974E-1,9.748359680E0
1.561965108E1,8.434699476E-2,-1.160518974E-1,9.757930756E0
1.566965108E1,7.058826834E-2,-1.160518974E-1,9.777072906E0
1.571965108E1,7.537391037E-2,-1.112662554E-1,9.767501831E0
1.576965108E1,8.015955985E-2,-1.160518974E-1,9.762716293E0
1.581965108E1,7.956135273E-2,-1.304088384E-1,9.762716293E0
1.586965108E1,7.537391037E-2,-1.118644550E-1,9.781859398E0
1.591965108E1,7.537391037E-2,-1.016949639E-1,9.762716293E0
1.596965108E1,7.058826834E-2,-1.064806059E-1,9.781859398E0
1.601965108E1,7.956135273E-2,-1.208375469E-1,9.767501831E0
1.606965108E1,8.015955985E-2,-1.256231815E-1,9.777072906E0
1.611965108E1,7.058826834E-2,-1.160518974E-1,9.757930756E0
1.616965108E1,7.477571070E-2,-1.160518974E-1,9.753145218E0
1.621965108E1,7.058826834E-2,-1.112662554E-1,9.777072906E0
1.626965108E1,6.520441920E-2,-1.208375469E-1,9.772287369E0
1.631965108E1,6.999006122E-2,-1.256231815E-1,9.748359680E0
1.636965108E1,7.537391037E-2,-1.064806059E-1,9.772287369E0
1.641965108E1,6.999006122E-2,-1.256231815E-1,9.772287369E0
1.646965108E1,7.058826834E-2,-1.016949639E-1,9.767501831E0
1.651965108E1,6.580262631E-2,-1.016949639E-1,9.772287369E0
1.656965108E1,7.477571070E-2,-1.160518974E-1,9.772287369E0
1.661965108E1,6.999006122E-2,-1.208375469E-1,9.757930756E0
1.666965108E1,7.477571070E-2,-1.208375469E-1,9.757930756E0
1.671965108E1,7.477571070E-2,-1.304088384E-1,9.781859398E0
1.676965108E1,8.015955985E-2,-1.064806059E-1,9.767501831E0
1.681965108E1,7.537391037E-2,-1.208375469E-1,9.767501831E0
1.686965108E1,6.999006122E-2,-1.256231815E-1,9.762716293E0
1.691965108E1,7.058826834E-2,-1.112662554E-1,9.762716293E0
1.696965108E1,7.537391037E-2,-1.064806059E-1,9.762716293E0
1.701965108E1,7.058826834E-2,-1.160518974E-1,9.767501831E0
1.706965108E1,7.537391037E-2,-1.160518974E-1,9.762716293E0
1.711965108E1,7.537391037E-2,-1.112662554E-1,9.772287369E0
1.716965108E1,7.058826834E-2,-1.208375469E-1,9.767501831E0
1.721965108E1,7.058826834E-2,-1.160518974E-1,9.781859398E0
1.726965108E1,8.015955985E-2,-1.208375469E-1,9.772287369E0
1.731965108E1,6.580262631E-2,-1.112662554E-1,9.781859398E0
1.736965108E1,8.494520187E-2,-1.112662554E-1,9.762716293E0
1.741965108E1,7.477571070E-2,-1.112662554E-1,9.762716293E0
1.746965108E1,7.956135273E-2,-1.208375469E-1,9.772287369E0
1.751965108E1,7.537391037E-2,-1.064806059E-1,9.767501831E0
1.756965108E1,7.058826834E-2,-1.064806059E-1,9.777072906E0
1.761965108E1,8.434699476E-2,-1.256231815E-1,9.753145218E0
1.766965108E1,6.580262631E-2,-1.112662554E-1,9.772287369E0
1.771965108E1,8.015955985E-2,-1.160518974E-1,9.772287369E0
1.776965108E1,7.058826834E-2,-1.208375469E-1,9.767501831E0
1.781965108E1,7.537391037E-2,-1.064806059E-1,9.781859398E0
1.786965108E1,7.058826834E-2,-1.016949639E-1,9.757930756E0
1.791965108E1,8.015955985E-2,-1.064806059E-1,9.757930756E0
1.796965108E1,6.580262631E-2,-1.016949639E-1,9.762716293E0
1.801965108E1,8.494520187E-2,-1.112662554E-1,9.772287369E0
1.806965108E1,8.015955985E-2,-1.160518974E-1,9.781859398E0
1.811965108E1,7.058826834E-2,-9.690931439E-2,9.762716293E0
1.816965108E1,9.451649338E-2,-1.022931710E-1,9.777072906E0
1.821965108E1,7.058826834E-2,-1.112662554E-1,9.772287369E0
1.826965108E1,7.537391037E-2,-1.160518974E-1,9.762716293E0
1.831965108E1,7.537391037E-2,-1.112662554E-1,9.748359680E0
1.836965108E1,8.494520187E-2,-1.112662554E-1,9.767501831E0
1.841965108E1,6.580262631E-2,-1.064806059E-1,9.767501831E0
1.846965108E1,7.537391037E-2,-1.064806059E-1,9.781859398E0
1.851965108E1,7.956135273E-2,-1.064806059E-1,9.757930756E0
1.856965108E1,7.058826834E-2,-1.208375469E-1,9.781859398E0
1.861965108E1,8.434699476E-2,-1.064806059E-1,9.753145218E0
1.866965108E1,7.537391037E-2,-1.112662554E-1,9.772287369E0
1.871965108E1,6.999006122E-2,-1.112662554E-1,9.767501831E0
1.876965108E1,7.537391037E-2,-1.208375469E-1,9.762716293E0
1.881965108E1,7.058826834E-2,-9.690931439E-2,9.757930756E0
1.886965108E1,7.477571070E-2,-1.304088384E-1,9.772287369E0
1.891965108E1,8.434699476E-2,-1.064806059E-1,9.753145218E0
1.896965108E1,7.956135273E-2,-1.256231815E-1,9.757930756E0
1.901965108E1,7.058826834E-2,-1.016949639E-1,9.777072906E0
1.906965108E1,8.015955985E-2,-1.064806059E-1,9.781859398E0
1.911965108E1,7.956135273E-2,-1.304088384E-1,9.743574142E0
1.916965108E1,9.451649338E-2,-1.016949639E-1,9.767501831E0
1.921965108E1,7.477571070E-2,-1.256231815E-1,9.753145218E0
1.926965108E1,8.973085135E-2,-1.160518974E-1,9.762716293E0
1.931965108E1,9.930214286E-2,-1.214357466E-1,9.767501831E0
1.936965108E1,5.563312769E-2,-1.160518974E-1,9.757930756E0
1.941965108E1,6.999006122E-2,-1.208375469E-1,9.757930756E0
1.946965108E1,7.058826834E-2,-1.016949639E-1,9.772287369E0
1.951965108E1,8.015955985E-2,-1.064806059E-1,9.767501831E0
1.956965108E1,8.015955985E-2,-1.064806059E-1,9.767501831E0
1.961965108E1,6.520441920E-2,-1.160518974E-1,9.757930756E0
1.966965108E1,7.477571070E-2,-1.160518974E-1,9.743574142E0
1.971965108E1,6.520441920E-2,-1.112662554E-1,9.757930756E0
1.976965108E1,8.973085135E-2,-1.016949639E-1,9.757930756E0
1.981965108E1,7.477571070E-2,-1.112662554E-1,9.757930756E0
1.986965108E1,7.537391037E-2,-1.016949639E-1,9.777072906E0
1.991965108E1,8.015955985E-2,-1.016949639E-1,9.781859398E0
1.996965108E1,7.956135273E-2,-1.064806059E-1,9.753145218E0
2.001965108E1,8.015955985E-2,-1.112662554E-1,9.767501831E0
2.006965108E1,6.520441920E-2,-1.064806059E-1,9.757930756E0
2.011965108E1,7.058826834E-2,-1.064806059E-1,9.767501831E0
2.016965108E1,6.101697683E-2,-1.112662554E-1,9.772287369E0
2.021965108E1,7.058826834E-2,-1.160518974E-1,9.786644936E0
2.026965108E1,6.101697683E-2,-1.208375469E-1,9.772287369E0
2.031965108E1,6.520441920E-2,-1.160518974E-1,9.753145218E0
2.036965108E1,7.477571070E-2,-1.256231815E-1,9.757930756E0
2.041965108E1,6.101697683E-2,-1.160518974E-1,9.772287369E0
2.046965108E1,6.580262631E-2,-1.016949639E-1,9.767501831E0
2.051965108E1,8.973085135E-2,-1.112662554E-1,9.762716293E0
2.056965108E1,7.058826834E-2,-1.064806059E-1,9.762716293E0
2.061965108E1,7.537391037E-2,-1.160518974E-1,9.767501831E0
2.066965108E1,8.015955985E-2,-1.064806059E-1,9.767501831E0
2.071965108E1,6.520441920E-2,-1.208375469E-1,9.762716293E0
2.076965108E1,6.999006122E-2,-1.112662554E-1,9.757930756E0
2.081965108E1,6.520441920E-2,-1.304088384E-1,9.729216576E0
2.086965108E1,7.058826834E-2,-1.112662554E-1,9.772287369E0
2.091965108E1,6.520441920E-2,-1.208375469E-1,9.767501831E0
2.096965108E1,6.520441920E-2,-1.208375469E-1,9.762716293E0
2.101965108E1,8.015955985E-2,-1.064806059E-1,9.772287369E0
2.106965108E1,7.477571070E-2,-1.208375469E-1,9.753145218E0
2.111965108E1,7.537391037E-2,-1.016949639E-1,9.767501831E0
2.116965108E1,7.537391037E-2,-1.016949639E-1,9.767501831E0
2.121965108E1,6.520441920E-2,-1.112662554E-1,9.757930756E0
2.126965108E1,7.956135273E-2,-1.160518974E-1,9.772287369E0
2.131965108E1,8.434699476E-2,-1.208375469E-1,9.757930756E0
2.136965108E1,6.520441920E-2,-1.256231815E-1,9.757930756E0
2.141965108E1,7.956135273E-2,-1.160518974E-1,9.772287369E0
2.146965108E1,7.477571070E-2,-1.112662554E-1,9.767501831E0
2.151965108E1,6.520441920E-2,-1.064806059E-1,9.767501831E0
2.156965108E1,6.999006122E-2,-1.304088384E-1,9.762716293E0
2.161965108E1,7.956135273E-2,-1.064806059E-1,9.762716293E0
2.166965108E1,7.537391037E-2,-1.160518974E-1,9.772287369E0
2.171965108E1,8.015955985E-2,-1.112662554E-1,9.781859398E0
2.176965108E1,9.391828626E-2,-1.262213886E-1,9.772287369E0
2.181965108E1,7.058826834E-2,-1.112662554E-1,9.777072906E0
2.186965108E1,7.537391037E-2,-1.016949639E-1,9.767501831E0
2.191965108E1,6.520441920E-2,-1.208375469E-1,9.767501831E0
2.196965108E1,8.913264424E-2,-1.208375469E-1,9.743574142E0
2.201965108E1,7.537391037E-2,-1.208375469E-1,9.762716293E0
2.206965108E1,8.494520187E-2,-1.304088384E-1,9.772287369E0
2.211965108E1,7.537391037E-2,-1.160518974E-1,9.781859398E0
2.216965108E1,6.999006122E-2,-1.160518974E-1,9.748359680E0
2.221965108E1,7.956135273E-2,-1.208375469E-1,9.748359680E0
2.226965108E1,8.494520187E-2,-1.112662554E-1,9.777072906E0
2.231965108E1,6.580262631E-2,-1.160518974E-1,9.777072906E0
2.236965108E1,8.015955985E-2,-1.064806059E-1,9.781859398E0
2.241965108E1,7.058826834E-2,-1.160518974E-1,9.772287369E0
2.246965108E1,6.999006122E-2,-1.256231815E-1,9.767501831E0
2.251965108E1,6.580262631E-2,-1.112662554E-1,9.767501831E0
2.256965108E1,7.956135273E-2,-1.256231815E-1,9.762716293E0
2.261965108E1,6.101697683E-2,-9.690931439E-2,9.777072906E0
2.266965108E1,7.477571070E-2,-1.256231815E-1,9.767501831E0
2.271965108E1,6.580262631E-2,-9.690931439E-2,9.762716293E0
2.276965108E1,7.537391037E-2,-1.112662554E-1,9.762716293E0
2.281965108E1,8.015955985E-2,-1.256231815E-1,9.777072906E0
2.286965108E1,5.563312769E-2,-1.160518974E-1,9.767501831E0
2.291965108E1,6.999006122E-2,-1.208375469E-1,9.777072906E0
2.296965108E1,6.999006122E-2,-1.304088384E-1,9.772287369E0
2.301965108E1,7.956135273E-2,-1.304088384E-1,9.762716293E0
2.306965108E1,6.999006122E-2,-1.160518974E-1,9.757930756E0
2.311965108E1,6.520441920E-2,-1.208375469E-1,9.762716293E0
2.316965108E1,6.999006122E-2,-1.256231815E-1,9.772287369E0
2.321965108E1,7.058826834E-2,-1.064806059E-1,9.762716293E0
2.326965108E1,6.999006122E-2,-1.064806059E-1,9.748359680E0
2.331965108E1,6.520441920E-2,-1.208375469E-1,9.767501831E0
2.336965108E1,8.015955985E-2,-1.160518974E-1,9.777072906E0
2.341965108E1,7.956135273E-2,-1.208375469E-1,9.757930756E0
2.346965108E1,6.520441920E-2,-1.208375469E-1,9.753145218E0
2.351965108E1,7.537391037E-2,-1.112662554E-1,9.772287369E0
2.356965108E1,7.956135273E-2,-1.112662554E-1,9.753145218E0
2.361965108E1,7.537391037E-2,-1.208375469E-1,9.777072906E0
2.366965108E1,7.477571070E-2,-9.690931439E-2,9.757930756E0
2.371965108E1,8.015955985E-2,-1.118644550E-1,9.781859398E0
2.376965108E1,7.537391037E-2,-1.016949639E-1,9.767501831E0
2.381965108E1,7.537391037E-2,-1.016949639E-1,9.757930756E0
2.386965108E1,7.477571070E-2,-1.208375469E-1,9.762716293E0
2.391965108E1,6.520441920E-2,-1.208375469E-1,9.767501831E0
2.396965108E1,7.477571070E-2,-1.208375469E-1,9.757930756E0
2.401965108E1,7.537391037E-2,-1.112662554E-1,9.777072906E0
2.406965108E1,7.956135273E-2,-1.160518974E-1,9.762716293E0
2.411965108E1,7.537391037E-2,-1.064806059E-1,9.772287369E0
2.416965108E1,7.537391037E-2,-1.016949639E-1,9.777072906E0
2.421965108E1,8.494520187E-2,-1.112662554E-1,9.772287369E0
2.426965108E1,7.058826834E-2,-1.160518974E-1,9.772287369E0
2.431965108E1,6.999006122E-2,-1.016949639E-1,9.757930756E0
2.436965108E1,7.956135273E-2,-1.256231815E-1,9.772287369E0
2.441965108E1,6.580262631E-2,-1.160518974E-1,9.772287369E0
2.446965108E1,8.494520187E-2,-1.112662554E-1,9.772287369E0
2.451965108E1,7.477571070E-2,-1.016949639E-1,9.757930756E0
2.456965108E1,8.434699476E-2,-1.256231815E-1,9.762716293E0
2.461965108E1,8.434699476E-2,-1.208375469E-1,9.762716293E0
2.466965108E1,8.434699476E-2,-1.160518974E-1,9.757930756E0
2.471965108E1,8.494520187E-2,-1.160518974E-1,9.767501831E0
2.476965108E1,6.580262631E-2,-1.064806059E-1,9.772287369E0
2.481965108E1,6.999006122E-2,-1.304088384E-1,9.753145218E0
2.486965108E1,7.058826834E-2,-1.256231815E-1,9.786644936E0
2.491965108E1,6.041877344E-2,-1.160518974E-1,9.753145218E0
2.496965108E1,7.477571070E-2,-1.304088384E-1,9.772287369E0
2.501965108E1,6.999006122E-2,-1.160518974E-1,9.753145218E0
2.506965108E1,7.537391037E-2,-1.160518974E-1,9.781859398E0
2.511965108E1,9.930214286E-2,-1.214357466E-1,9.781859398E0
2.516965108E1,6.999006122E-2,-1.208375469E-1,9.762716293E0
2.521965108E1,8.494520187E-2,-9.690931439E-2,9.772287369E0
2.526965108E1,7.537391037E-2,-1.064806059E-1,9.781859398E0
2.531965108E1,6.041877344E-2,-1.160518974E-1,9.767501831E0
2.536965108E1,7.058826834E-2,-1.064806059E-1,9.762716293E0
2.541965108E1,7.477571070E-2,-1.160518974E-1,9.762716293E0
2.546965108E1,6.580262631E-2,-1.064806059E-1,9.767501831E0
2.551965108E1,7.477571070E-2,-1.112662554E-1,9.757930756E0
2.556965108E1,7.537391037E-2,-1.112662554E-1,9.777072906E0
2.561965108E1,7.956135273E-2,-1.256231815E-1,9.772287369E0
2.566965108E1,7.058826834E-2,-1.064806059E-1,9.767501831E0
2.571965108E1,6.999006122E-2,-1.160518974E-1,9.757930756E0
2.576965108E1,7.058826834E-2,-1.016949639E-1,9.777072906E0
2.581965108E1,6.580262631E-2,-1.064806059E-1,9.781859398E0
2.586965108E1,7.956135273E-2,-1.208375469E-1,9.767501831E0
2.591965108E1,8.015955985E-2,-1.208375469E-1,9.777072906E0
2.596965108E1,6.580262631E-2,-1.112662554E-1,9.772287369E0
2.601965108E1,7.477571070E-2,-1.256231815E-1,9.767501831E0
2.606965108E1,6.520441920E-2,-1.304088384E-1,9.757930756E0
2.611965108E1,8.015955985E-2,-1.160518974E-1,9.762716293E0
2.616965108E1,8.494520187E-2,-1.112662554E-1,9.781859398E0
2.621965108E1,7.956135273E-2,-1.208375469E-1,9.762716293E0
2.626965108E1,8.494520187E-2,-1.112662554E-1,9.786644936E0
2.631965108E1,7.956135273E-2,-1.256231815E-1,9.772287369E0
2.636965108E1,6.580262631E-2,-1.112662554E-1,9.762716293E0
2.641965108E1,7.956135273E-2,-1.112662554E-1,9.767501831E0
2.646965108E1,8.015955985E-2,-1.208375469E-1,9.772287369E0
2.651965108E1,7.537391037E-2,-1.064806059E-1,9.781859398E0
2.656965108E1,6.580262631E-2,-1.208375469E-1,9.772287369E0
2.661965108E1,7.477571070E-2,-1.208375469E-1,9.753145218E0
2.666965108E1,6.520441920E-2,-1.208375469E-1,9.767501831E0
2.671965108E1,6.580262631E-2,-1.016949639E-1,9.762716293E0
2.676965108E1,6.580262631E-2,-1.112662554E-1,9.762716293E0
2.681965108E1,8.015955985E-2,-1.208375469E-1,9.777072906E0
2.686965108E1,8.015955985E-2,-1.016949639E-1,9.777072906E0
2.691965108E1,7.956135273E-2,-1.256231815E-1,9.767501831E0
2.696965108E1,8.015955985E-2,-1.016949639E-1,9.767501831E0
2.701965108E1,7.477571070E-2,-1.160518974E-1,9.757930756E0
2.706965108E1,7.537391037E-2,-1.112662554E-1,9.781859398E0
2.711965108E1,7.537391037E-2,-1.064806059E-1,9.781859398E0
2.716965108E1,6.580262631E-2,-1.208375469E-1,9.772287369E0
2.721965108E1,8.015955985E-2,-1.064806059E-1,9.767501831E0
2.726965108E1,7.058826834E-2,-1.208375469E-1,9.757930756E0
2.731965108E1,8.973085135E-2,-1.160518974E-1,9.767501831E0
2.736965108E1,6.580262631E-2,-1.064806059E-1,9.772287369E0
2.741965108E1,8.973085135E-2,-1.112662554E-1,9.762716293E0
2.746965108E1,8.015955985E-2,-1.112662554E-1,9.757930756E0
2.751965108E1,7.537391037E-2,-1.016949639E-1,9.762716293E0
2.756965108E1,6.999006122E-2,-1.208375469E-1,9.767501831E0
2.761965108E1,8.434699476E-2,-1.256231815E-1,9.753145218E0
2.766965108E1,7.058826834E-2,-1.160518974E-1,9.762716293E0
2.771965108E1,6.580262631E-2,-1.064806059E-1,9.772287369E0
2.776965108E1,8.015955985E-2,-1.208375469E-1,9.777072906E0
2.781965108E1,6.580262631E-2,-1.160518974E-1,9.777072906E0
2.786965108E1,6.580262631E-2,-1.112662554E-1,9.767501831E0
2.791965108E1,6.520441920E-2,-1.160518974E-1,9.748359680E0
2.796965108E1,8.015955985E-2,-1.160518974E-1,9.767501831E0
2.801965108E1,8.494520187E-2,-1.070788130E-1,9.777072906E0
2.806965108E1,7.956135273E-2,-1.208375469E-1,9.772287369E0
2.811965108E1,6.041877344E-2,-1.208375469E-1,9.762716293E0
2.816965108E1,7.956135273E-2,-1.208375469E-1,9.767501831E0
2.821965108E1,6.999006122E-2,-1.208375469E-1,9.762716293E0
2.826965108E1,8.015955985E-2,-1.160518974E-1,9.772287369E0
2.831965108E1,6.999006122E-2,-1.112662554E-1,9.762716293E0
2.836965108E1,6.101697683E-2,-1.016949639E-1,9.772287369E0
2.841965108E1,8.494520187E-2,-1.160518974E-1,9.767501831E0
2.846965108E1,7.537391037E-2,-1.064806059E-1,9.772287369E0
2.851965108E1,6.580262631E-2,-1.160518974E-1,9.757930756E0
2.856965108E1,7.537391037E-2,-1.112662554E-1,9.791430473E0
2.861965108E1,5.623133108E-2,-1.016949639E-1,9.767501831E0
2.866965108E1,6.999006122E-2,-1.208375469E-1,9.753145218E0
2.871965108E1,6.101697683E-2,-1.208375469E-1,9.762716293E0
2.876965108E1,7.537391037E-2,-1.112662554E-1,9.781859398E0
2.881965108E1,7.537391037E-2,-1.112662554E-1,9.762716293E0
2.886965108E1,7.058826834E-2,-9.690931439E-2,9.777072906E0
2.891965108E1,6.580262631E-2,-1.160518974E-1,9.772287369E0
2.896965108E1,7.477571070E-2,-1.208375469E-1,9.757930756E0
2.901965108E1,7.537391037E-2,-1.160518974E-1,9.757930756E0
2.906965108E1,8.015955985E-2,-1.160518974E-1,9.757930756E0
2.911965108E1,7.058826834E-2,-1.112662554E-1,9.772287369E0
2.916965108E1,7.058826834E-2,-1.112662554E-1,9.786644936E0
2.921965108E1,6.101697683E-2,-1.160518974E-1,9.781859398E0
2.926965108E1,8.015955985E-2,-1.112662554E-1,9.781859398E0
2.931965108E1,7.537391037E-2,-1.208375469E-1,9.762716293E0
2.936965108E1,7.537391037E-2,-1.351944804E-1,9.777072906E0
2.941965108E1,8.015955985E-2,-1.112662554E-1,9.772287369E0
2.946965108E1,6.580262631E-2,-9.690931439E-2,9.767501831E0
2.951965108E1,5.623133108E-2,-9.690931439E-2,9.786644936E0
2.956965108E1,7.956135273E-2,-1.160518974E-1,9.743574142E0
2.961965108E1,5.563312769E-2,-1.256231815E-1,9.767501831E0
2.966965108E1,9.451649338E-2,-1.304088384E-1,9.777072906E0
2.971965108E1,7.537391037E-2,-1.256231815E-1,9.786644936E0
2.976965108E1,8.015955985E-2,-1.208375469E-1,9.772287369E0
2.981965108E1,7.537391037E-2,-1.112662554E-1,9.753145218E0
2.986965108E1,8.973085135E-2,-1.112662554E-1,9.781859398E0
2.991965108E1,8.434699476E-2,-1.160518974E-1,9.743574142E0
2.996965108E1,7.058826834E-2,-1.064806059E-1,9.757930756E0
3.001965108E1,8.015955985E-2,-1.304088384E-1,9.781859398E0
3.006965108E1,6.580262631E-2,-1.016949639E-1,9.781859398E0
3.011965108E1,6.580262631E-2,-9.690931439E-2,9.757930756E0
3.016965108E1,1.040877849E-1,-1.112662554E-1,9.757930756E0
3.021965108E1,6.580262631E-2,-1.304088384E-1,9.772287369E0
3.026965108E1,7.058826834E-2,-1.016949639E-1,9.753145218E0
3.031965108E1,8.015955985E-2,-1.208375469E-1,9.772287369E0
3.036965108E1,6.580262631E-2,-1.112662554E-1,9.762716293E0
3.041965108E1,7.058826834E-2,-1.160518974E-1,9.772287369E0
3.046965108E1,8.015955985E-2,-1.208375469E-1,9.767501831E0
3.051965108E1,6.101697683E-2,-1.064806059E-1,9.777072906E0
3.056965108E1,6.101697683E-2,-1.112662554E-1,9.767501831E0
3.061965108E1,7.537391037E-2,-1.160518974E-1,9.777072906E0
3.066965108E1,6.101697683E-2,-1.256231815E-1,9.777072906E0
3.071965108E1,8.973085135E-2,-1.160518974E-1,9.753145218E0
3.076965108E1,8.015955985E-2,-1.256231815E-1,9.791430473E0
3.081965108E1,7.477571070E-2,-1.112662554E-1,9.757930756E0
3.086965108E1,7.058826834E-2,-1.064806059E-1,9.772287369E0
3.091965108E1,7.956135273E-2,-1.351944804E-1,9.767501831E0
3.096965108E1,8.494520187E-2,-1.016949639E-1,9.772287369E0
3.101965108E1,7.477571070E-2,-1.208375469E-1,9.753145218E0
3.106965108E1,8.015955985E-2,-1.256231815E-1,9.757930756E0
3.111965108E1,8.494520187E-2,-1.208375469E-1,9.753145218E0
3.116965108E1,6.580262631E-2,-1.016949639E-1,9.762716293E0
3.121965108E1,7.537391037E-2,-1.160518974E-1,9.762716293E0
3.126965108E1,8.015955985E-2,-1.304088384E-1,9.762716293E0
3.131965108E1,6.101697683E-2,-1.208375469E-1,9.777072906E0
3.136965108E1,6.101697683E-2,-1.208375469E-1,9.786046028E0
3.141965108E1,8.015955985E-2,-1.160518974E-1,9.786046028E0
3.146965108E1,8.015955985E-2,-1.304088384E-1,9.777072906E0
3.151965108E1,7.537391037E-2,-1.208375469E-1,9.781859398E0
3.156965108E1,6.580262631E-2,-1.064806059E-1,9.772287369E0
3.161965108E1,7.537391037E-2,-1.064806059E-1,9.772287369E0
3.166965108E1,6.999006122E-2,-1.304088384E-1,9.762716293E0
3.171965108E1,8.015955985E-2,-1.112662554E-1,9.772287369E0
3.176965108E1,7.537391037E-2,-1.112662554E-1,9.796216011E0
3.181965108E1,6.999006122E-2,-1.208375469E-1,9.753145218E0
3.186965108E1,7.537391037E-2,-1.160518974E-1,9.753145218E0
3.191965108E1,7.537391037E-2,-1.160518974E-1,9.766903877E0
3.196965108E1,7.537391037E-2,-1.208375469E-1,9.771689415E0
3.201965108E1,7.537391037E-2,-1.016949639E-1,9.772287369E0
3.206965108E1,7.537391037E-2,-1.112662554E-1,9.767501831E0
3.211965108E1,6.580262631E-2,-1.112662554E-1,9.762716293E0
3.216965108E1,7.537391037E-2,-1.112662554E-1,9.748359680E0
3.221965108E1,7.058826834E-2,-1.208375469E-1,9.753145218E0
3.226965108E1,7.537391037E-2,-1.112662554E-1,9.762716293E0
3.231965108E1,7.537391037E-2,-1.160518974E-1,9.767501831E0
3.236965108E1,6.101697683E-2,-1.016949639E-1,9.771689415E0
3.241965108E1,7.058826834E-2,-1.160518974E-1,9.767501831E0
3.246965108E1,7.537391037E-2,-1.160518974E-1,9.790832520E0
3.251965108E1,7.058826834E-2,-1.112662554E-1,9.757930756E0
3.256965108E1,7.058826834E-2,-1.016949639E-1,9.776474953E0
3.261965108E1,7.537391037E-2,-1.160518974E-1,9.762716293E0
3.266965108E1,6.580262631E-2,-1.256231815E-1,9.762716293E0
3.271965108E1,7.058826834E-2,-1.064806059E-1,9.766903877E0
3.276965108E1,7.058826834E-2,-1.064806059E-1,9.767501831E0
3.281965108E1,6.580262631E-2,-1.160518974E-1,9.777072906E0
3.286965108E1,8.015955985E-2,-1.112662554E-1,9.757930756E0
3.291965108E1,6.580262631E-2,-1.112662554E-1,9.786046028E0
3.296965108E1,7.537391037E-2,-8.733802289E-2,9.762118340E0
3.301965108E1,6.101697683E-2,-1.208375469E-1,9.781260490E0
3.306965108E1,7.537391037E-2,-1.016949639E-1,9.762716293E0
3.311965108E1,7.537391037E-2,-1.208375469E-1,9.772287369E0
3.316965108E1,7.058826834E-2,-1.016949639E-1,9.771689415E0
3.321965108E1,6.580262631E-2,-1.208375469E-1,9.762118340E0
3.326965108E1,7.058826834E-2,-1.160518974E-1,9.777072906E0
3.331965108E1,7.058826834E-2,-1.160518974E-1,9.762716293E0
3.336965108E1,7.058826834E-2,-1.064806059E-1,9.757930756E0
3.341965108E1,7.058826834E-2,-1.112662554E-1,9.757930756E0
3.346965108E1,7.058826834E-2,-1.112662554E-1,9.776474953E0
3.351965108E1,8.494520187E-2,-1.160518974E-1,9.752547264E0
3.356965108E1,7.058826834E-2,-1.208375469E-1,9.771689415E0
3.361965108E1,8.015955985E-2,-1.160518974E-1,9.766903877E0
3.366965108E1,7.537391037E-2,-1.016949639E-1,9.781260490E0
3.371965108E1,8.494520187E-2,-1.256231815E-1,9.771689415E0
3.376965108E1,7.058826834E-2,-1.160518974E-1,9.757930756E0
3.381965108E1,7.537391037E-2,-1.208375469E-1,9.762716293E0
3.386965108E1,6.580262631E-2,-1.208375469E-1,9.766903877E0
3.391965108E1,7.537391037E-2,-1.208375469E-1,9.771689415E0
3.396965108E1,6.580262631E-2,-1.112662554E-1,9.757332802E0
3.401965108E1,8.494520187E-2,-1.112662554E-1,9.771689415E0
3.406965108E1,7.537391037E-2,-1.160518974E-1,9.776474953E0
3.411965108E1,7.058826834E-2,-1.064806059E-1,9.776474953E0
3.416965108E1,7.537391037E-2,-1.208375469E-1,9.772287369E0
3.421965108E1,8.015955985E-2,-1.160518974E-1,9.766903877E0
3.426965108E1,8.494520187E-2,-1.160518974E-1,9.766903877E0
3.431965108E1,6.101697683E-2,-1.160518974E-1,9.776474953E0
3.436965108E1,6.580262631E-2,-1.016949639E-1,9.786046028E0
3.441965108E1,7.058826834E-2,-1.208375469E-1,9.771689415E0
3.446965108E1,7.058826834E-2,-1.256231815E-1,9.753145218E0
3.451965108E1,7.537391037E-2,-1.160518974E-1,9.781260490E0
3.456965108E1,7.058826834E-2,-1.016949639E-1,9.766903877E0
3.461965108E1,8.973085135E-2,-1.016949639E-1,9.766903877E0
3.466965108E1,7.537391037E-2,-1.112662554E-1,9.762118340E0
3.471965108E1,8.015955985E-2,-1.160518974E-1,9.781260490E0
3.476965108E1,7.537391037E-2,-1.112662554E-1,9.771689415E0
3.481965108E1,8.015955985E-2,-1.256231815E-1,9.766903877E0
3.486965108E1,8.494520187E-2,-1.256231815E-1,9.766903877E0
3.491965108E1,8.973085135E-2,-1.160518974E-1,9.752547264E0
3.496965108E1,6.101697683E-2,-1.208375469E-1,9.776474953E0
3.501965108E1,7.058826834E-2,-1.256231815E-1,9.776474953E0
3.506965108E1,7.058826834E-2,-1.016949639E-1,9.771689415E0
3.511965108E1,8.494520187E-2,-1.064806059E-1,9.776474953E0
3.516965108E1,7.537391037E-2,-1.160518974E-1,9.757332802E0
3.521965108E1,7.537391037E-2,-1.160518974E-1,9.781260490E0
3.526965108E1,8.015955985E-2,-1.064806059E-1,9.771689415E0
3.531965108E1,7.058826834E-2,-1.160518974E-1,9.757930756E0
3.536965108E1,7.058826834E-2,-1.208375469E-1,9.772287369E0
3.541965108E1,8.015955985E-2,-1.208375469E-1,9.776474953E0
3.546965108E1,7.537391037E-2,-1.112662554E-1,9.771689415E0
3.551965108E1,8.494520187E-2,-1.208375469E-1,9.757332802E0
3.556965108E1,7.058826834E-2,-1.160518974E-1,9.771689415E0
3.561965108E1,8.494520187E-2,-1.112662554E-1,9.762118340E0
3.566965108E1,7.058826834E-2,-1.112662554E-1,9.771689415E0
3.571965108E1,8.494520187E-2,-1.160518974E-1,9.786046028E0
3.576965108E1,7.058826834E-2,-1.064806059E-1,9.757332802E0
3.581965108E1,8.494520187E-2,-1.064806059E-1,9.762118340E0
3.586965108E1,7.058826834E-2,-1.208375469E-1,9.757930756E0
3.591965108E1,6.101697683E-2,-1.112662554E-1,9.762118340E0
3.596965108E1,8.015955985E-2,-1.112662554E-1,9.757332802E0
3.601965108E1,7.537391037E-2,-1.160518974E-1,9.752547264E0
3.606965108E1,8.494520187E-2,-1.112662554E-1,9.752547264E0
3.611965108E1,7.537391037E-2,-1.112662554E-1,9.766903877E0
3.616965108E1,8.015955985E-2,-1.064806059E-1,9.766903877E0
3.621965108E1,6.580262631E-2,-1.064806059E-1,9.771689415E0
3.626965108E1,6.580262631E-2,-9.690931439E-2,9.747760773E0
3.631965108E1,7.058826834E-2,-1.064806059E-1,9.766903877E0
3.636965108E1,7.058826834E-2,-1.160518974E-1,9.766903877E0
3.641965108E1,8.973085135E-2,-1.208375469E-1,9.766903877E0
3.646965108E1,8.015955985E-2,-1.208375469E-1,9.771689415E0
3.651965108E1,7.537391037E-2,-1.112662554E-1,9.762118340E0
3.656965108E1,7.537391037E-2,-1.064806059E-1,9.747760773E0
3.661965108E1,7.058826834E-2,-1.064806059E-1,9.781260490E0
3.666965108E1,6.580262631E-2,-1.112662554E-1,9.776474953E0
3.671965108E1,7.058826834E-2,-1.016949639E-1,9.748359680E0
3.676965108E1,6.580262631E-2,-1.208375469E-1,9.776474953E0
3.681965108E1,8.015955985E-2,-1.256231815E-1,9.752547264E0
3.686965108E1,8.015955985E-2,-1.160518974E-1,9.766903877E0
3.691965108E1,6.580262631E-2,-1.208375469E-1,9.771689415E0
3.696965108E1,7.537391037E-2,-1.160518974E-1,9.766903877E0
3.701965108E1,8.015955985E-2,-1.208375469E-1,9.776474953E0
3.706965108E1,6.580262631E-2,-1.112662554E-1,9.766903877E0
3.711965108E1,8.015955985E-2,-1.016949639E-1,9.781260490E0
3.716965108E1,6.101697683E-2,-1.160518974E-1,9.766903877E0
3.721965108E1,7.537391037E-2,-1.064806059E-1,9.771689415E0
3.726965108E1,8.015955985E-2,-1.256231815E-1,9.766903877E0
3.731965108E1,7.058826834E-2,-1.160518974E-1,9.762118340E0
3.736965108E1,6.580262631E-2,-1.208375469E-1,9.752547264E0
3.741965108E1,7.537391037E-2,-1.112662554E-1,9.771689415E0
3.746965108E1,5.623133108E-2,-1.160518974E-1,9.766903877E0
3.751965108E1,7.058826834E-2,-1.064806059E-1,9.776474953E0
3.756965108E1,8.494520187E-2,-1.160518974E-1,9.776474953E0
3.761965108E1,7.537391037E-2,-1.112662554E-1,9.771689415E0
3.766965108E1,7.058826834E-2,-1.160518974E-1,9.776474953E0
3.771965108E1,8.015955985E-2,-1.160518974E-1,9.752547264E0
3.776965108E1,8.494520187E-2,-1.208375469E-1,9.766903877E0
3.781965108E1,6.580262631E-2,-1.112662554E-1,9.757332802E0
3.786965108E1,8.015955985E-2,-1.160518974E-1,9.766903877E0
3.791965108E1,6.101697683E-2,-1.112662554E-1,9.752547264E0
3.796965108E1,7.537391037E-2,-1.016949639E-1,9.757332802E0
3.801965108E1,7.537391037E-2,-1.256231815E-1,9.776474953E0
3.806965108E1,7.537391037E-2,-1.160518974E-1,9.757332802E0
3.811965108E1,7.058826834E-2,-1.112662554E-1,9.790832520E0
3.816965108E1,7.537391037E-2,-1.208375469E-1,9.766903877E0
3.821965108E1,8.494520187E-2,-1.208375469E-1,9.776474953E0
3.826965108E1,7.537391037E-2,-1.208375469E-1,9.781260490E0
3.831965108E1,8.973085135E-2,-1.112662554E-1,9.762118340E0
3.836965108E1,7.537391037E-2,-1.160518974E-1,9.786046028E0
3.841965108E1,8.015955985E-2,-1.112662554E-1,9.771689415E0
3.846965108E1,6.580262631E-2,-1.064806059E-1,9.757332802E0
3.851965108E1,8.494520187E-2,-1.112662554E-1,9.762118340E0
3.856965108E1,8.494520187E-2,-1.160518974E-1,9.771689415E0
3.861965108E1,7.058826834E-2,-1.208375469E-1,9.757332802E0
3.866965108E1,7.058826834E-2,-1.160518974E-1,9.776474953E0
3.871965108E1,8.015955985E-2,-1.016949639E-1,9.762118340E0
3.876965108E1,7.537391037E-2,-1.112662554E-1,9.786046028E0
3.881965108E1,7.058826834E-2,-1.112662554E-1,9.781260490E0
3.886965108E1,6.580262631E-2,-1.351944804E-1,9.752547264E0
3.891965108E1,6.580262631E-2,-1.064806059E-1,9.771689415E0
3.896965108E1,8.015955985E-2,-1.112662554E-1,9.757332802E0
3.901965108E1,7.058826834E-2,-1.064806059E-1,9.766903877E0
3.906965108E1,8.015955985E-2,-1.208375469E-1,9.757332802E0
3.911965108E1,7.058826834E-2,-1.112662554E-1,9.766903877E0
3.916965108E1,6.580262631E-2,-1.064806059E-1,9.762118340E0
3.921965108E1,7.537391037E-2,-1.016949639E-1,9.766903877E0
3.926965108E1,7.537391037E-2,-1.208375469E-1,9.781260490E0
3.931965108E1,6.580262631E-2,-1.208375469E-1,9.762118340E0
3.936965108E1,8.494520187E-2,-1.112662554E-1,9.771689415E0
3.941965108E1,6.580262631E-2,-1.160518974E-1,9.752547264E0
3.946965108E1,8.015955985E-2,-1.160518974E-1,9.762118340E0
3.951965108E1,6.580262631E-2,-1.208375469E-1,9.771689415E0
3.956965108E1,6.580262631E-2,-1.112662554E-1,9.771689415E0
3.961965108E1,8.015955985E-2,-1.351944804E-1,9.762118340E0
3.966965108E1,7.058826834E-2,-1.256231815E-1,9.762118340E0
3.971965108E1,7.058826834E-2,-1.208375469E-1,9.776474953E0
3.976965108E1,7.537391037E-2,-1.208375469E-1,9.776474953E0
3.981965108E1,8.973085135E-2,-1.112662554E-1,9.771689415E0
3.986965108E1,7.058826834E-2,-1.112662554E-1,9.762118340E0
3.991965108E1,8.015955985E-2,-1.160518974E-1,9.771689415E0
3.996965108E1,8.015955985E-2,-1.160518974E-1,9.766903877E0
4.001965108E1,6.580262631E-2,-1.208375469E-1,9.752547264E0
4.006965108E1,7.058826834E-2,-1.112662554E-1,9.771689415E0
4.011965108E1,7.537391037E-2,-1.160518974E-1,9.762118340E0
4.016965108E1,7.058826834E-2,-1.208375469E-1,9.766903877E0
4.021965108E1,7.058826834E-2,-1.064806059E-1,9.786046028E0
4.026965108E1,6.101697683E-2,-1.112662554E-1,9.757332802E0
4.031965108E1,6.580262631E-2,-1.016949639E-1,9.786046028E0
4.036965108E1,7.058826834E-2,-1.112662554E-1,9.776474953E0
4.041965108E1,8.015955985E-2,-1.112662554E-1,9.786046028E0
4.046965108E1,6.580262631E-2,-1.208375469E-1,9.766903877E0
4.051965108E1,7.058826834E-2,-1.160518974E-1,9.771689415E0
4.056965108E1,7.537391037E-2,-1.112662554E-1,9.776474953E0
4.061965108E1,7.058826834E-2,-1.256231815E-1,9.786046028E0
4.066965108E1,7.537391037E-2,-1.208375469E-1,9.776474953E0
4.071965108E1,8.015955985E-2,-1.064806059E-1,9.781260490E0
4.076965108E1,7.537391037E-2,-1.160518974E-1,9.766903877E0
4.081965108E1,8.494520187E-2,-1.016949639E-1,9.762118340E0
4.086965108E1,8.494520187E-2,-1.064806059E-1,9.771689415E0
4.091965108E1,8.015955985E-2,-1.064806059E-1,9.771689415E0
4.096965108E1,7.537391037E-2,-1.208375469E-1,9.771689415E0
4.101965108E1,8.015955985E-2,-1.160518974E-1,9.762118340E0
4.106965108E1,7.537391037E-2,-1.256231815E-1,9.776474953E0
4.111965108E1,6.101697683E-2,-1.208375469E-1,9.766903877E0
4.116965108E1,7.058826834E-2,-1.112662554E-1,9.766903877E0
4.121965108E1,7.058826834E-2,-1.064806059E-1,9.771689415E0
4.126965108E1,7.537391037E-2,-9.212367237E-2,9.762118340E0
4.131965108E1,7.537391037E-2,-1.112662554E-1,9.771689415E0
4.136965108E1,7.537391037E-2,-1.160518974E-1,9.766903877E0
4.141965108E1,6.580262631E-2,-1.112662554E-1,9.781260490E0
4.146965108E1,7.537391037E-2,-1.112662554E-1,9.766903877E0
4.151965108E1,8.015955985E-2,-1.160518974E-1,9.762118340E0
4.156965108E1,7.058826834E-2,-1.112662554E-1,9.766903877E0
4.161965108E1,7.058826834E-2,-1.304088384E-1,9.766903877E0
4.166965108E1,7.537391037E-2,-1.064806059E-1,9.771689415E0
4.171965108E1,7.537391037E-2,-1.208375469E-1,9.781260490E0
4.176965108E1,8.015955985E-2,-1.064806059E-1,9.762118340E0
4.181965108E1,8.015955985E-2,-1.208375469E-1,9.776474953E0
4.186965108E1,8.015955985E-2,-1.064806059E-1,9.771689415E0
4.191965108E1,7.537391037E-2,-1.064806059E-1,9.752547264E0
4.196965108E1,6.580262631E-2,-9.690931439E-2,9.771689415E0
4.201965108E1,8.075776696E-2,-9.690931439E-2,9.771689415E0
4.206965108E1,6.101697683E-2,-1.160518974E-1,9.766903877E0
4.211965108E1,8.494520187E-2,-1.256231815E-1,9.781260490E0
4.216965108E1,7.058826834E-2,-1.112662554E-1,9.771689415E0
4.221965108E1,7.537391037E-2,-1.160518974E-1,9.781260490E0
4.226965108E1,8.973085135E-2,-1.208375469E-1,9.771689415E0
4.231965108E1,8.494520187E-2,-1.208375469E-1,9.771689415E0
4.236965108E1,7.058826834E-2,-1.208375469E-1,9.762118340E0
4.241965108E1,7.058826834E-2,-1.208375469E-1,9.733404160E0
4.246965108E1,7.537391037E-2,-1.112662554E-1,9.786046028E0
4.251965108E1,7.058826834E-2,-1.256231815E-1,9.776474953E0
4.256965108E1,8.494520187E-2,-1.208375469E-1,9.766903877E0
4.261965108E1,6.580262631E-2,-1.064806059E-1,9.766903877E0
4.266965108E1,6.101697683E-2,-1.112662554E-1,9.757332802E0
4.271965108E1,8.973085135E-2,-1.256231815E-1,9.771689415E0
4.276965108E1,8.015955985E-2,-1.256231815E-1,9.776474953E0
4.281965108E1,7.058826834E-2,-1.256231815E-1,9.771689415E0
4.286965108E1,6.580262631E-2,-1.112662554E-1,9.766903877E0
4.291965108E1,8.494520187E-2,-1.208375469E-1,9.771689415E0
4.296965108E1,7.058826834E-2,-1.208375469E-1,9.757332802E0
4.301965108E1,6.580262631E-2,-1.016949639E-1,9.771689415E0
4.306965108E1,8.494520187E-2,-1.160518974E-1,9.771689415E0
4.311965108E1,7.058826834E-2,-1.160518974E-1,9.781260490E0
4.316965108E1,7.058826834E-2,-1.160518974E-1,9.766903877E0
4.321965108E1,7.058826834E-2,-1.208375469E-1,9.766903877E0
4.326965108E1,8.494520187E-2,-1.016949639E-1,9.766903877E0
4.331965108E1,7.058826834E-2,-1.112662554E-1,9.771689415E0
4.336965108E1,7.058826834E-2,-1.160518974E-1,9.771689415E0
4.341965108E1,6.580262631E-2,-1.016949639E-1,9.771689415E0
4.346965108E1,5.623133108E-2,-1.112662554E-1,9.757332802E0
4.351965108E1,7.537391037E-2,-1.064806059E-1,9.781260490E0
4.356965108E1,6.580262631E-2,-1.160518974E-1,9.776474953E0
4.361965108E1,7.058826834E-2,-1.304088384E-1,9.771689415E0
4.366965108E1,8.015955985E-2,-1.256231815E-1,9.786046028E0
4.371965108E1,6.580262631E-2,-1.256231815E-1,9.766903877E0
4.376965108E1,7.058826834E-2,-1.160518974E-1,9.766903877E0
4.381965108E1,6.101697683E-2,-1.112662554E-1,9.771689415E0
4.386965108E1,7.537391037E-2,-1.208375469E-1,9.771689415E0
4.391965108E1,8.015955985E-2,-1.064806059E-1,9.766903877E0
4.396965108E1,8.015955985E-2,-1.064806059E-1,9.762118340E0
4.401965108E1,7.537391037E-2,-1.064806059E-1,9.776474953E0
4.406965108E1,6.580262631E-2,-1.208375469E-1,9.752547264E0
4.411965108E1,6.580262631E-2,-1.208375469E-1,9.762118340E0
4.416965108E1,6.580262631E-2,-1.064806059E-1,9.766903877E0
4.421965108E1,7.537391037E-2,-1.304088384E-1,9.776474953E0
4.426965108E1,7.058826834E-2,-1.160518974E-1,9.776474953E0
4.431965108E1,7.058826834E-2,-1.256231815E-1,9.776474953E0
4.436965108E1,7.058826834E-2,-1.160518974E-1,9.781260490E0
4.441965108E1,8.015955985E-2,-1.160518974E-1,9.757332802E0
4.446965108E1,8.075776696E-2,-1.064806059E-1,9.776474953E0
4.451965108E1,7.537391037E-2,-1.064806059E-1,9.766903877E0
4.456965108E1,7.118647546E-2,-1.016949639E-1,9.790832520E0
4.461965108E1,7.537391037E-2,-1.064806059E-1,9.766903877E0
4.466965108E1,5.623133108E-2,-1.112662554E-1,9.771689415E0
4.471965108E1,7.537391037E-2,-1.160518974E-1,9.757332802E0
4.476965108E1,7.537391037E-2,-1.208375469E-1,9.766903877E0
4.481965108E1,6.580262631E-2,-1.160518974E-1,9.766903877E0
4.486965108E1,7.058826834E-2,-1.208375469E-1,9.766903877E0
4.491965108E1,7.537391037E-2,-1.064806059E-1,9.757332802E0
4.496965108E1,7.058826834E-2,-1.064806059E-1,9.762118340E0
4.501965108E1,7.537391037E-2,-1.208375469E-1,9.757332802E0
4.506965108E1,6.101697683E-2,-1.208375469E-1,9.776474953E0
4.511965108E1,7.537391037E-2,-1.208375469E-1,9.747760773E0
4.516965108E1,7.058826834E-2,-9.690931439E-2,9.762118340E0
4.521965108E1,7.058826834E-2,-1.160518974E-1,9.757332802E0
4.526965108E1,7.058826834E-2,-1.160518974E-1,9.752547264E0
4.531965108E1,6.580262631E-2,-1.160518974E-1,9.747760773E0
4.536965108E1,8.015955985E-2,-1.208375469E-1,9.771689415E0
4.541965108E1,7.058826834E-2,-1.256231815E-1,9.786046028E0
4.546965108E1,8.075776696E-2,-1.016949639E-1,9.771689415E0
4.551965108E1,8.015955985E-2,-1.112662554E-1,9.762118340E0
4.556965108E1,6.580262631E-2,-1.160518974E-1,9.776474953E0
4.561965108E1,8.554340899E-2,-9.212367237E-2,9.771689415E0
4.566965108E1,7.058826834E-2,-1.064806059E-1,9.766903877E0
4.571965108E1,7.537391037E-2,-1.112662554E-1,9.766903877E0
4.576965108E1,8.973085135E-2,-1.112662554E-1,9.762118340E0
4.581965108E1,6.580262631E-2,-1.160518974E-1,9.771689415E0
4.586965108E1,7.537391037E-2,-1.160518974E-1,9.781260490E0
4.591965108E1,7.537391037E-2,-1.160518974E-1,9.771689415E0
4.596965108E1,6.101697683E-2,-1.064806059E-1,9.757332802E0
4.601965108E1,7.597211748E-2,-1.064806059E-1,9.776474953E0
4.606965108E1,7.058826834E-2,-1.112662554E-1,9.766903877E0
4.611965108E1,6.580262631E-2,-1.064806059E-1,9.766903877E0
4.616965108E1,6.580262631E-2,-1.256231815E-1,9.752547264E0
4.621965108E1,8.015955985E-2,-1.256231815E-1,9.776474953E0
4.626965108E1,7.537391037E-2,-1.160518974E-1,9.762118340E0
4.631965108E1,6.580262631E-2,-1.256231815E-1,9.752547264E0
4.636965108E1,8.494520187E-2,-1.256231815E-1,9.776474953E0
4.641965108E1,7.058826834E-2,-1.256231815E-1,9.766903877E0
4.646965108E1,8.015955985E-2,-1.256231815E-1,9.757332802E0
4.651965108E1,6.640082598E-2,-1.112662554E-1,9.771689415E0
4.656965108E1,6.640082598E-2,-1.112662554E-1,9.766903877E0
4.661965108E1,7.118647546E-2,-1.112662554E-1,9.776474953E0
4.666965108E1,8.075776696E-2,-1.208375469E-1,9.786046028E0
4.671965108E1,8.554340899E-2,-1.160518974E-1,9.771689415E0
4.676965108E1,7.537391037E-2,-1.208375469E-1,9.771689415E0
4.681965108E1,7.118647546E-2,-1.208375469E-1,9.776474953E0
4.686965108E1,7.597211748E-2,-1.112662554E-1,9.786046028E0
4.691965108E1,7.597211748E-2,-1.064806059E-1,9.781260490E0
4.696965108E1,6.580262631E-2,-1.256231815E-1,9.776474953E0
4.701965108E1,6.640082598E-2,-1.064806059E-1,9.766903877E0
4.706965108E1,7.597211748E-2,-1.112662554E-1,9.766903877E0
4.711965108E1,8.075776696E-2,-1.160518974E-1,9.786046028E0
4.716965108E1,8.075776696E-2,-1.112662554E-1,9.776474953E0
4.721965108E1,6.580262631E-2,-1.208375469E-1,9.757332802E0
4.726965108E1,8.494520187E-2,-1.208375469E-1,9.762118340E0
4.731965108E1,7.118647546E-2,-1.160518974E-1,9.771689415E0
4.736965108E1,7.118647546E-2,-1.160518974E-1,9.776474953E0
4.741965108E1,8.075776696E-2,-1.112662554E-1,9.786046028E0
4.746965108E1,7.118647546E-2,-1.160518974E-1,9.781260490E0
4.751965108E1,5.623133108E-2,-1.208375469E-1,9.771689415E0
4.756965108E1,6.161518395E-2,-1.064806059E-1,9.776474953E0
4.761965108E1,6.640082598E-2,-1.064806059E-1,9.752547264E0
4.766965108E1,7.118647546E-2,-1.064806059E-1,9.776474953E0
4.771965108E1,8.554340899E-2,-1.208375469E-1,9.771689415E0
4.776965108E1,8.554340899E-2,-1.016949639E-1,9.781260490E0
4.781965108E1,7.597211748E-2,-1.160518974E-1,9.762118340E0
4.786965108E1,8.075776696E-2,-1.064806059E-1,9.781260490E0
4.791965108E1,6.101697683E-2,-1.208375469E-1,9.757332802E0
4.796965108E1,6.640082598E-2,-1.064806059E-1,9.790832520E0
4.801965108E1,7.597211748E-2,-1.064806059E-1,9.757332802E0
4.806965108E1,8.075776696E-2,-1.064806059E-1,9.781260490E0
4.811965108E1,8.075776696E-2,-1.160518974E-1,9.781260490E0
4.816965108E1,7.118647546E-2,-1.256231815E-1,9.771689415E0
4.821965108E1,7.118647546E-2,-1.160518974E-1,9.781260490E0
4.826965108E1,8.075776696E-2,-1.112662554E-1,9.757332802E0
4.831965108E1,7.597211748E-2,-1.160518974E-1,9.762118340E0
4.836965108E1,6.161518395E-2,-1.112662554E-1,9.790233612E0
4.841965108E1,7.597211748E-2,-1.112662554E-1,9.766903877E0
4.846965108E1,7.537391037E-2,-1.160518974E-1,9.757332802E0
4.851965108E1,7.597211748E-2,-1.064806059E-1,9.762118340E0
4.856965108E1,5.623133108E-2,-1.112662554E-1,9.752547264E0
4.861965108E1,7.597211748E-2,-1.016949639E-1,9.757332802E0
4.866965108E1,6.640082598E-2,-1.112662554E-1,9.781260490E0
4.871965108E1,7.597211748E-2,-1.160518974E-1,9.776474953E0
4.876965108E1,6.161518395E-2,-1.112662554E-1,9.762118340E0
4.881965108E1,7.058826834E-2,-1.112662554E-1,9.752547264E0
4.886965108E1,6.640082598E-2,-1.064806059E-1,9.776474953E0
4.891965108E1,7.118647546E-2,-1.160518974E-1,9.771689415E0
4.896965108E1,7.118647546E-2,-1.256231815E-1,9.795618057E0
4.901965108E1,6.640082598E-2,-1.256231815E-1,9.766903877E0
4.906965108E1,7.118647546E-2,-1.160518974E-1,9.775876999E0
4.911965108E1,7.118647546E-2,-1.016949639E-1,9.757332802E0
4.916965108E1,6.640082598E-2,-1.160518974E-1,9.771689415E0
4.921965108E1,7.118647546E-2,-1.160518974E-1,9.762118340E0
4.926965108E1,7.597211748E-2,-1.160518974E-1,9.771689415E0
4.931965108E1,8.075776696E-2,-1.064806059E-1,9.781260490E0
4.936965108E1,8.075776696E-2,-1.112662554E-1,9.786046028E0
4.941965108E1,6.161518395E-2,-1.112662554E-1,9.781260490E0
4.946965108E1,7.118647546E-2,-1.112662554E-1,9.780662537E0
4.951965108E1,6.161518395E-2,-1.304088384E-1,9.776474953E0
4.956965108E1,7.597211748E-2,-1.064806059E-1,9.766903877E0
4.961965108E1,7.118647546E-2,-1.304088384E-1,9.781260490E0
4.966965108E1,8.554340899E-2,-1.208375469E-1,9.766903877E0
4.971965108E1,8.554340899E-2,-1.160518974E-1,9.775876999E0
4.976965108E1,7.597211748E-2,-1.064806059E-1,9.766305923E0
4.981965108E1,7.597211748E-2,-1.112662554E-1,9.757332802E0
4.986965108E1,7.597211748E-2,-1.160518974E-1,9.785448074E0
4.991965108E1,6.640082598E-2,-1.112662554E-1,9.771091461E0
4.996965108E1,6.640082598E-2,-1.208375469E-1,9.766903877E0
5.001965108E1,8.075776696E-2,-1.160518974E-1,9.775876999E0
5.006965108E1,7.118647546E-2,-1.112662554E-1,9.780662537E0
5.011965108E1,7.118647546E-2,-1.208375469E-1,9.766903877E0
5.016965108E1,6.161518395E-2,-1.304088384E-1,9.776474953E0
5.021965108E1,8.075776696E-2,-1.016949639E-1,9.771091461E0
5.026965108E1,7.118647546E-2,-1.064806059E-1,9.766903877E0
5.031965108E1,6.640082598E-2,-1.256231815E-1,9.776474953E0
5.036965108E1,7.118647546E-2,-1.160518974E-1,9.762118340E0
5.041965108E1,7.118647546E-2,-1.256231815E-1,9.766903877E0
5.046965108E1,8.075776696E-2,-1.160518974E-1,9.762118340E0
5.051965108E1,7.118647546E-2,-1.112662554E-1,9.771091461E0
5.056965108E1,6.161518395E-2,-1.304088384E-1,9.766903877E0
5.061965108E1,7.058826834E-2,-1.208375469E-1,9.757332802E0
5.066965108E1,6.640082598E-2,-1.112662554E-1,9.766903877E0
5.071965108E1,7.597211748E-2,-1.064806059E-1,9.771689415E0
5.076965108E1,8.554340899E-2,-1.112662554E-1,9.771689415E0
5.081965108E1,8.075776696E-2,-1.112662554E-1,9.752547264E0
5.086965108E1,7.118647546E-2,-1.016949639E-1,9.762118340E0
5.091965108E1,6.640082598E-2,-1.160518974E-1,9.771689415E0
5.096965108E1,6.640082598E-2,-1.160518974E-1,9.771689415E0
5.101965108E1,6.161518395E-2,-1.160518974E-1,9.766903877E0
5.106965108E1,6.640082598E-2,-1.016949639E-1,9.776474953E0
5.111965108E1,8.554340899E-2,-1.160518974E-1,9.776474953E0
5.116965108E1,7.118647546E-2,-1.256231815E-1,9.762118340E0
5.121965108E1,7.537391037E-2,-1.304088384E-1,9.757332802E0
5.126965108E1,8.075776696E-2,-1.208375469E-1,9.766903877E0
5.131965108E1,7.597211748E-2,-1.016949639E-1,9.762118340E0
5.136965108E1,6.640082598E-2,-1.064806059E-1,9.771689415E0
5.141965108E1,6.580262631E-2,-1.112662554E-1,9.757332802E0
5.146965108E1,7.058826834E-2,-1.304088384E-1,9.776474953E0
5.151965108E1,6.580262631E-2,-1.208375469E-1,9.757332802E0
5.156965108E1,6.640082598E-2,-1.208375469E-1,9.771689415E0
5.161965108E1,7.118647546E-2,-1.160518974E-1,9.771689415E0
5.166965108E1,9.032905847E-2,-9.690931439E-2,9.761520386E0
5.171965108E1,6.640082598E-2,-1.016949639E-1,9.771091461E0
5.176965108E1,7.597211748E-2,-1.160518974E-1,9.776474953E0
5.181965108E1,6.640082598E-2,-1.064806059E-1,9.771689415E0
5.186965108E1,6.640082598E-2,-1.160518974E-1,9.781260490E0
5.191965108E1,8.554340899E-2,-1.304088384E-1,9.771689415E0
5.196965108E1,6.161518395E-2,-1.112662554E-1,9.776474953E0
5.201965108E1,6.640082598E-2,-1.112662554E-1,9.781260490E0
5.206965108E1,8.075776696E-2,-1.208375469E-1,9.771689415E0
5.211965108E1,7.597211748E-2,-1.160518974E-1,9.771689415E0
5.216965108E1,7.058826834E-2,-1.256231815E-1,9.766903877E0
5.221965108E1,7.597211748E-2,-1.112662554E-1,9.771689415E0
5.226965108E1,7.597211748E-2,-1.256231815E-1,9.786046028E0
5.231965108E1,6.161518395E-2,-1.064806059E-1,9.762118340E0
5.236965108E1,7.118647546E-2,-1.112662554E-1,9.776474953E0
5.241965108E1,6.161518395E-2,-1.064806059E-1,9.762118340E0
5.246965108E1,6.640082598E-2,-1.112662554E-1,9.771689415E0
5.251965108E1,7.118647546E-2,-1.304088384E-1,9.766903877E0
5.256965108E1,7.118647546E-2,-1.160518974E-1,9.766903877E0
5.261965108E1,6.640082598E-2,-1.160518974E-1,9.771689415E0
5.266965108E1,7.118647546E-2,-1.112662554E-1,9.771689415E0
5.271965108E1,6.640082598E-2,-1.112662554E-1,9.757332802E0
5.276965108E1,6.640082598E-2,-1.064806059E-1,9.776474953E0
5.281965108E1,6.640082598E-2,-1.160518974E-1,9.762118340E0
5.286965108E1,6.640082598E-2,-1.064806059E-1,9.757332802E0
5.291965108E1,7.058826834E-2,-1.351944804E-1,9.762118340E0
5.296965108E1,7.537391037E-2,-1.160518974E-1,9.752547264E0
5.301965108E1,7.597211748E-2,-1.208375469E-1,9.766903877E0
5.306965108E1,6.640082598E-2,-1.208375469E-1,9.771689415E0
5.311965108E1,6.640082598E-2,-1.208375469E-1,9.766903877E0
5.316965108E1,6.161518395E-2,-1.256231815E-1,9.776474953E0
5.321965108E1,6.161518395E-2,-1.064806059E-1,9.752547264E0
5.326965108E1,7.058826834E-2,-1.208375469E-1,9.762118340E0
5.331965108E1,8.075776696E-2,-1.112662554E-1,9.762118340E0
5.336965108E1,8.075776696E-2,-1.016949639E-1,9.766903877E0
5.341965108E1,6.161518395E-2,-1.064806059E-1,9.752547264E0
5.346965108E1,8.075776696E-2,-1.112662554E-1,9.766903877E0
5.351965108E1,6.640082598E-2,-1.160518974E-1,9.776474953E0
5.356965108E1,8.015955985E-2,-1.351944804E-1,9.752547264E0
5.361965108E1,7.118647546E-2,-1.112662554E-1,9.762118340E0
5.366965108E1,6.161518395E-2,-1.112662554E-1,9.766903877E0
5.371965108E1,6.640082598E-2,-1.256231815E-1,9.766903877E0
5.376965108E1,6.161518395E-2,-9.690931439E-2,9.771689415E0
5.381965108E1,5.623133108E-2,-1.208375469E-1,9.757332802E0
5.386965108E1,8.075776696E-2,-9.690931439E-2,9.766903877E0
5.391965108E1,6.161518395E-2,-1.112662554E-1,9.757332802E0
5.396965108E1,7.118647546E-2,-1.112662554E-1,9.762118340E0
5.401965108E1,7.118647546E-2,-1.112662554E-1,9.781260490E0
5.406965108E1,7.058826834E-2,-1.208375469E-1,9.757332802E0
5.411965108E1,7.118647546E-2,-1.160518974E-1,9.762118340E0
5.416965108E1,7.597211748E-2,-1.160518974E-1,9.762118340E0
5.421965108E1,6.580262631E-2,-1.304088384E-1,9.757332802E0
5.426965108E1,6.161518395E-2,-1.208375469E-1,9.776474953E0
5.431965108E1,7.118647546E-2,-1.016949639E-1,9.776474953E0
5.436965108E1,7.118647546E-2,-1.112662554E-1,9.775876999E0
5.441965108E1,6.161518395E-2,-1.016949639E-1,9.762118340E0
5.446965108E1,6.580262631E-2,-1.208375469E-1,9.747760773E0
5.451965108E1,6.640082598E-2,-1.064806059E-1,9.771689415E0
5.456965108E1,8.075776696E-2,-1.208375469E-1,9.781260490E0
5.461965108E1,7.118647546E-2,-1.208375469E-1,9.776474953E0
5.466965108E1,6.161518395E-2,-1.208375469E-1,9.757332802E0
5.471965108E1,7.537391037E-2,-1.256231815E-1,9.776474953E0
5.476965108E1,8.015955985E-2,-1.208375469E-1,9.762118340E0
5.481965108E1,6.580262631E-2,-1.208375469E-1,9.762118340E0
5.486965108E1,6.640082598E-2,-1.160518974E-1,9.776474953E0
5.491965108E1,8.075776696E-2,-1.112662554E-1,9.752547264E0
5.496965108E1,7.118647546E-2,-1.160518974E-1,9.776474953E0
5.501965108E1,6.640082598E-2,-1.112662554E-1,9.776474953E0
5.506965108E1,7.537391037E-2,-1.256231815E-1,9.776474953E0
5.511965108E1,6.161518395E-2,-1.208375469E-1,9.762118340E0
5.516965108E1,6.640082598E-2,-1.064806059E-1,9.766903877E0
5.521965108E1,7.118647546E-2,-1.160518974E-1,9.766903877E0
5.526965108E1,7.118647546E-2,-1.112662554E-1,9.771689415E0
5.531965108E1,7.537391037E-2,-1.208375469E-1,9.752547264E0
5.536965108E1,7.118647546E-2,-1.064806059E-1,9.762118340E0
5.541965108E1,5.682953820E-2,-1.064806059E-1,9.766903877E0
5.546965108E1,6.580262631E-2,-1.160518974E-1,9.757332802E0
5.551965108E1,8.015955985E-2,-1.208375469E-1,9.762118340E0
5.556965108E1,8.075776696E-2,-1.160518974E-1,9.771689415E0
5.561965108E1,7.597211748E-2,-1.064806059E-1,9.781260490E0
5.566965108E1,7.118647546E-2,-1.208375469E-1,9.771689415E0
5.571965108E1,7.597211748E-2,-1.112662554E-1,9.781260490E0
5.576965108E1,8.075776696E-2,-1.160518974E-1,9.780662537E0
5.581965108E1,7.597211748E-2,-1.064806059E-1,9.762118340E0
5.586965108E1,8.075776696E-2,-1.160518974E-1,9.781260490E0
5.591965108E1,7.118647546E-2,-1.112662554E-1,9.771689415E0
5.596965108E1,6.161518395E-2,-1.160518974E-1,9.771689415E0
5.601965108E1,9.032905847E-2,-1.160518974E-1,9.766903877E0
5.606965108E1,7.058826834E-2,-1.351944804E-1,9.766903877E0
5.611965108E1,5.682953820E-2,-1.256231815E-1,9.781260490E0
5.616965108E1,8.075776696E-2,-1.304088384E-1,9.795618057E0
5.621965108E1,7.118647546E-2,-1.112662554E-1,9.776474953E0
5.626965108E1,8.075776696E-2,-1.160518974E-1,9.780662537E0
5.631965108E1,7.597211748E-2,-1.208375469E-1,9.781260490E0
5.636965108E1,6.640082598E-2,-1.160518974E-1,9.762118340E0
5.641965108E1,7.597211748E-2,-1.112662554E-1,9.775876999E0
5.646965108E1,7.597211748E-2,-1.208375469E-1,9.766903877E0
5.651965108E1,6.640082598E-2,-1.160518974E-1,9.762118340E0
5.656965108E1,7.118647546E-2,-1.160518974E-1,9.771091461E0
5.661965108E1,6.640082598E-2,-1.160518974E-1,9.775876999E0
5.666965108E1,5.204389244E-2,-1.202393398E-1,9.771091461E0
5.671965108E1,7.118647546E-2,-1.208375469E-1,9.776474953E0
5.676965108E1,7.118647546E-2,-1.154536903E-1,9.761520386E0
5.681965108E1,7.118647546E-2,-1.160518974E-1,9.780662537E0
5.686965108E1,6.640082598E-2,-9.690931439E-2,9.775876999E0
5.691965108E1,7.118647546E-2,-1.112662554E-1,9.785448074E0
5.696965108E1,7.597211748E-2,-1.112662554E-1,9.771091461E0
5.701965108E1,9.032905847E-2,-1.064806059E-1,9.771091461E0
5.706965108E1,7.118647546E-2,-1.351944804E-1,9.766903877E0
5.711965108E1,8.554340899E-2,-1.160518974E-1,9.751948357E0
5.716965108E1,8.075776696E-2,-1.256231815E-1,9.756733894E0
5.721965108E1,6.640082598E-2,-1.250249892E-1,9.761520386E0
5.726965108E1,7.118647546E-2,-1.064806059E-1,9.771091461E0
5.731965108E1,7.118647546E-2,-1.208375469E-1,9.771091461E0
5.736965108E1,7.597211748E-2,-1.160518974E-1,9.766305923E0
5.741965108E1,7.118647546E-2,-1.112662554E-1,9.780662537E0
5.746965108E1,7.118647546E-2,-1.112662554E-1,9.780662537E0
5.751965108E1,8.075776696E-2,-9.690931439E-2,9.771091461E0
5.756965108E1,6.640082598E-2,-1.016949639E-1,9.775876999E0
5.761965108E1,6.640082598E-2,-1.160518974E-1,9.771091461E0
5.766965108E1,7.118647546E-2,-1.160518974E-1,9.771091461E0
5.771965108E1,6.640082598E-2,-1.298106313E-1,9.756733894E0
5.776965108E1,7.597211748E-2,-1.106680483E-1,9.766305923E0
5.781965108E1,7.118647546E-2,-1.064806059E-1,9.785448074E0
5.786965108E1,7.597211748E-2,-1.160518974E-1,9.766305923E0
5.791965108E1,8.075776696E-2,-1.064806059E-1,9.766305923E0
5.796965108E1,7.118647546E-2,-1.256231815E-1,9.780662537E0
5.801965108E1,6.161518395E-2,-1.010967568E-1,9.775876999E0
5.806965108E1,7.118647546E-2,-9.152546525E-2,9.761520386E0
5.811965108E1,7.597211748E-2,-1.106680483E-1,9.761520386E0
5.816965108E1,8.554340899E-2,-1.160518974E-1,9.775876999E0
5.821965108E1,8.075776696E-2,-1.256231815E-1,9.761520386E0
5.826965108E1,7.597211748E-2,-1.112662554E-1,9.766305923E0
5.831965108E1,7.597211748E-2,-1.208375469E-1,9.771091461E0
5.836965108E1,7.118647546E-2,-1.064806059E-1,9.775876999E0
5.841965108E1,7.118647546E-2,-1.160518974E-1,9.775876999E0
5.846965108E1,8.075776696E-2,-1.304088384E-1,9.771091461E0
5.851965108E1,7.118647546E-2,-1.064806059E-1,9.780662537E0
5.856965108E1,7.118647546E-2,-1.202393398E-1,9.766305923E0
5.861965108E1,8.554340899E-2,-1.208375469E-1,9.775876999E0
5.866965108E1,8.075776696E-2,-1.160518974E-1,9.766305923E0
5.871965108E1,7.118647546E-2,-1.112662554E-1,9.766305923E0
5.876965108E1,7.597211748E-2,-1.160518974E-1,9.771091461E0
5.881965108E1,6.161518395E-2,-1.112662554E-1,9.775876999E0
5.886965108E1,7.118647546E-2,-1.256231815E-1,9.780662537E0
5.891965108E1,6.640082598E-2,-1.106680483E-1,9.771091461E0
5.896965108E1,7.597211748E-2,-1.112662554E-1,9.775876999E0
5.901965108E1,7.597211748E-2,-1.160518974E-1,9.761520386E0
5.906965108E1,8.075776696E-2,-1.112662554E-1,9.756733894E0
5.911965108E1,8.075776696E-2,-1.112662554E-1,9.766305923E0
5.916965108E1,8.075776696E-2,-1.160518974E-1,9.751948357E0
5.921965108E1,7.118647546E-2,-1.256231815E-1,9.761520386E0
5.926965108E1,7.118647546E-2,-1.160518974E-1,9.771091461E0
5.931965108E1,7.118647546E-2,-1.154536903E-1,9.761520386E0
5.936965108E1,7.597211748E-2,-1.112662554E-1,9.775876999E0
5.941965108E1,6.640082598E-2,-1.202393398E-1,9.737591743E0
5.946965108E1,6.640082598E-2,-1.058823988E-1,9.775876999E0
5.951965108E1,8.075776696E-2,-1.064806059E-1,9.756733894E0
5.956965108E1,6.640082598E-2,-1.112662554E-1,9.775876999E0
5.961965108E1,8.075776696E-2,-1.112662554E-1,9.747162819E0
5.966965108E1,8.075776696E-2,-1.064806059E-1,9.771091461E0
5.971965108E1,6.640082598E-2,-1.298106313E-1,9.771091461E0
5.976965108E1,8.075776696E-2,-1.154536903E-1,9.756733894E0
5.981965108E1,8.075776696E-2,-1.351944804E-1,9.761520386E0
5.986965108E1,7.597211748E-2,-1.112662554E-1,9.761520386E0
5.991965108E1,6.161518395E-2,-1.112662554E-1,9.766903877E0
5.996965108E1,7.597211748E-2,-1.160518974E-1,9.762118340E0
6.001965108E1,7.118647546E-2,-1.058823988E-1,9.761520386E0
6.006965108E1,7.597211748E-2,-1.160518974E-1,9.756733894E0
6.011965108E1,7.118647546E-2,-1.106680483E-1,9.766305923E0
6.016965108E1,6.161518395E-2,-1.154536903E-1,9.771091461E0
6.021965108E1,6.640082598E-2,-1.058823988E-1,9.761520386E0
6.026965108E1,7.597211748E-2,-1.208375469E-1,9.756733894E0
6.031965108E1,8.075776696E-2,-1.208375469E-1,9.766305923E0
6.036965108E1,8.075776696E-2,-1.250249892E-1,9.756733894E0
6.041965108E1,7.118647546E-2,-1.106680483E-1,9.751948357E0
6.046965108E1,5.682953820E-2,-1.154536903E-1,9.766305923E0
6.051965108E1,6.640082598E-2,-1.154536903E-1,9.747162819E0
6.056965108E1,7.597211748E-2,-1.112662554E-1,9.761520386E0
6.061965108E1,6.161518395E-2,-9.631111473E-2,9.761520386E0
6.066965108E1,8.554340899E-2,-1.256231815E-1,9.761520386E0
6.071965108E1,7.118647546E-2,-1.208375469E-1,9.761520386E0
6.076965108E1,7.597211748E-2,-1.160518974E-1,9.766305923E0
6.081965108E1,7.118647546E-2,-1.160518974E-1,9.780662537E0
6.086965108E1,7.118647546E-2,-1.250249892E-1,9.756733894E0
6.091965108E1,7.118647546E-2,-1.250249892E-1,9.756733894E0
6.096965108E1,5.682953820E-2,-1.154536903E-1,9.766305923E0
6.101965108E1,7.118647546E-2,-1.160518974E-1,9.771091461E0
6.106965108E1,7.118647546E-2,-1.160518974E-1,9.780662537E0
6.111965108E1,6.640082598E-2,-1.058823988E-1,9.756733894E0
6.116965108E1,7.597211748E-2,-9.690931439E-2,9.775876999E0
6.121965108E1,6.640082598E-2,-1.058823988E-1,9.761520386E0
6.126965108E1,7.118647546E-2,-1.154536903E-1,9.761520386E0
6.131965108E1,6.640082598E-2,-1.202393398E-1,9.747760773E0
6.136965108E1,8.554340899E-2,-1.160518974E-1,9.761520386E0
6.141965108E1,7.118647546E-2,-1.154536903E-1,9.756733894E0
6.146965108E1,8.554340899E-2,-1.112662554E-1,9.751948357E0
6.151965108E1,7.118647546E-2,-1.202393398E-1,9.771091461E0
6.156965108E1,8.075776696E-2,-1.112662554E-1,9.747162819E0
6.161965108E1,9.032905847E-2,-1.256231815E-1,9.756733894E0
6.166965108E1,6.640082598E-2,-1.154536903E-1,9.761520386E0
6.171965108E1,8.075776696E-2,-1.160518974E-1,9.756733894E0
6.176965108E1,8.075776696E-2,-1.112662554E-1,9.771091461E0
6.181965108E1,8.554340899E-2,-1.160518974E-1,9.756733894E0
6.186965108E1,6.640082598E-2,-9.690931439E-2,9.771091461E0
6.191965108E1,7.118647546E-2,-1.112662554E-1,9.766305923E0
6.196965108E1,8.075776696E-2,-9.690931439E-2,9.751948357E0
6.201965108E1,6.161518395E-2,-1.208375469E-1,9.785448074E0
6.206965108E1,6.640082598E-2,-1.160518974E-1,9.780662537E0
6.211965108E1,7.597211748E-2,-1.112662554E-1,9.761520386E0
6.216965108E1,8.075776696E-2,-1.064806059E-1,9.756733894E0
6.221965108E1,8.075776696E-2,-1.256231815E-1,9.756733894E0
6.226965108E1,8.554340899E-2,-1.208375469E-1,9.757332802E0
6.231965108E1,7.597211748E-2,-1.112662554E-1,9.771091461E0
6.236965108E1,7.597211748E-2,-1.160518974E-1,9.766305923E0
6.241965108E1,6.640082598E-2,-1.256231815E-1,9.766305923E0
6.246965108E1,6.640082598E-2,-1.256231815E-1,9.766305923E0
6.251965108E1,6.640082598E-2,-1.208375469E-1,9.785448074E0
6.256965108E1,8.075776696E-2,-1.016949639E-1,9.761520386E0
6.261965108E1,8.075776696E-2,-1.256231815E-1,9.766903877E0
6.266965108E1,7.118647546E-2,-1.112662554E-1,9.757332802E0
6.271965108E1,7.118647546E-2,-1.112662554E-1,9.766305923E0
6.276965108E1,7.118647546E-2,-1.154536903E-1,9.756733894E0
6.281965108E1,7.118647546E-2,-1.250249892E-1,9.751948357E0
6.286965108E1,7.597211748E-2,-1.160518974E-1,9.756733894E0
6.291965108E1,7.118647546E-2,-1.064806059E-1,9.761520386E0
6.296965108E1,6.640082598E-2,-1.154536903E-1,9.751948357E0
6.301965108E1,8.075776696E-2,-1.208375469E-1,9.771091461E0
6.306965108E1,6.161518395E-2,-1.250249892E-1,9.761520386E0
6.311965108E1,7.118647546E-2,-1.016949639E-1,9.761520386E0
6.316965108E1,7.118647546E-2,-1.106680483E-1,9.761520386E0
6.321965108E1,6.640082598E-2,-1.112662554E-1,9.761520386E0
6.326965108E1,8.075776696E-2,-1.256231815E-1,9.771091461E0
6.331965108E1,7.118647546E-2,-1.256231815E-1,9.752547264E0
6.336965108E1,6.161518395E-2,-1.256231815E-1,9.771091461E0
6.341965108E1,7.597211748E-2,-1.304088384E-1,9.781260490E0
6.346965108E1,6.640082598E-2,-1.160518974E-1,9.766903877E0
6.351965108E1,6.640082598E-2,-1.154536903E-1,9.761520386E0
6.356965108E1,6.161518395E-2,-1.160518974E-1,9.766903877E0
6.361965108E1,8.075776696E-2,-1.208375469E-1,9.785448074E0
6.366965108E1,7.597211748E-2,-1.399801224E-1,9.780662537E0
6.371965108E1,8.554340899E-2,-1.160518974E-1,9.751948357E0
6.376965108E1,6.161518395E-2,-1.058823988E-1,9.757332802E0
6.381965108E1,6.161518395E-2,-1.106680483E-1,9.752547264E0
6.386965108E1,7.118647546E-2,-1.304088384E-1,9.766903877E0
6.391965108E1,7.597211748E-2,-1.160518974E-1,9.752547264E0
6.396965108E1,7.118647546E-2,-1.304088384E-1,9.771689415E0
6.401965108E1,6.640082598E-2,-1.160518974E-1,9.776474953E0
6.406965108E1,6.640082598E-2,-1.112662554E-1,9.780662537E0
6.411965108E1,7.597211748E-2,-1.112662554E-1,9.766305923E0
6.416965108E1,7.118647546E-2,-1.064806059E-1,9.780662537E0
6.421965108E1,9.032905847E-2,-1.112662554E-1,9.775876999E0
6.426965108E1,7.597211748E-2,-1.160518974E-1,9.766903877E0
6.431965108E1,7.118647546E-2,-1.112662554E-1,9.780662537E0
6.436965108E1,8.554340899E-2,-1.112662554E-1,9.761520386E0
6.441965108E1,7.118647546E-2,-1.016949639E-1,9.766305923E0
6.446965108E1,6.161518395E-2,-1.106680483E-1,9.751948357E0
6.451965108E1,6.161518395E-2,-1.202393398E-1,9.752547264E0
6.456965108E1,7.597211748E-2,-1.112662554E-1,9.756733894E0
6.461965108E1,8.554340899E-2,-1.208375469E-1,9.761520386E0
6.466965108E1,7.597211748E-2,-1.160518974E-1,9.771091461E0
6.471965108E1,7.597211748E-2,-1.112662554E-1,9.775876999E0
6.476965108E1,7.597211748E-2,-1.112662554E-1,9.766903877E0
6.481965108E1,8.554340899E-2,-1.016949639E-1,9.771091461E0
6.486965108E1,8.015955985E-2,-1.256231815E-1,9.752547264E0
6.491965108E1,7.537391037E-2,-1.256231815E-1,9.752547264E0
6.496965108E1,7.118647546E-2,-1.112662554E-1,9.757332802E0
6.501965108E1,8.075776696E-2,-1.160518974E-1,9.757332802E0
6.506965108E1,7.118647546E-2,-1.112662554E-1,9.757332802E0
6.511965108E1,6.640082598E-2,-1.160518974E-1,9.766903877E0
6.516965108E1,8.554340899E-2,-1.016949639E-1,9.775876999E0
6.521965108E1,8.554340899E-2,-1.160518974E-1,9.771689415E0
6.526965108E1,7.597211748E-2,-1.064806059E-1,9.757332802E0
6.531965108E1,7.597211748E-2,-1.160518974E-1,9.762118340E0
6.536965108E1,7.597211748E-2,-1.256231815E-1,9.752547264E0
6.541965108E1,7.597211748E-2,-1.160518974E-1,9.766903877E0
6.546965108E1,6.640082598E-2,-9.690931439E-2,9.761520386E0
6.551965108E1,6.640082598E-2,-1.160518974E-1,9.762118340E0
6.556965108E1,8.075776696E-2,-1.208375469E-1,9.762118340E0
6.561965108E1,7.597211748E-2,-1.256231815E-1,9.785448074E0
6.566965108E1,6.640082598E-2,-1.160518974E-1,9.757332802E0
6.571965108E1,7.597211748E-2,-1.112662554E-1,9.771689415E0
6.576965108E1,7.597211748E-2,-1.064806059E-1,9.757332802E0
6.581965108E1,6.640082598E-2,-1.208375469E-1,9.776474953E0
6.586965108E1,8.075776696E-2,-1.112662554E-1,9.762118340E0
6.591965108E1,7.118647546E-2,-1.160518974E-1,9.762118340E0
6.596965108E1,7.597211748E-2,-1.064806059E-1,9.776474953E0
6.601965108E1,7.537391037E-2,-1.160518974E-1,9.747760773E0
6.606965108E1,7.597211748E-2,-1.256231815E-1,9.771689415E0
6.611965108E1,8.554340899E-2,-1.256231815E-1,9.776474953E0
6.616965108E1,6.640082598E-2,-1.160518974E-1,9.757332802E0
6.621965108E1,7.597211748E-2,-1.064806059E-1,9.762118340E0
6.626965108E1,8.075776696E-2,-1.112662554E-1,9.766305923E0
6.631965108E1,9.032905847E-2,-1.160518974E-1,9.766903877E0
6.636965108E1,7.597211748E-2,-1.064806059E-1,9.766305923E0
6.641965108E1,6.640082598E-2,-1.112662554E-1,9.762118340E0
6.646965108E1,7.597211748E-2,-1.160518974E-1,9.781260490E0
6.651965108E1,6.580262631E-2,-1.304088384E-1,9.762118340E0
6.656965108E1,7.118647546E-2,-1.304088384E-1,9.766903877E0
6.661965108E1,7.597211748E-2,-1.064806059E-1,9.771689415E0
6.666965108E1,5.682953820E-2,-1.064806059E-1,9.775876999E0
6.671965108E1,6.161518395E-2,-1.160518974E-1,9.757332802E0
6.676965108E1,6.640082598E-2,-1.160518974E-1,9.781260490E0
6.681965108E1,6.640082598E-2,-1.064806059E-1,9.766903877E0
6.686965108E1,8.075776696E-2,-9.690931439E-2,9.775876999E0
6.691965108E1,8.075776696E-2,-1.208375469E-1,9.757332802E0
6.696965108E1,7.118647546E-2,-1.160518974E-1,9.771689415E0
6.701965108E1,7.597211748E-2,-1.112662554E-1,9.766903877E0
6.706965108E1,7.118647546E-2,-1.208375469E-1,9.766903877E0
6.711965108E1,8.075776696E-2,-1.160518974E-1,9.775876999E0
6.716965108E1,8.075776696E-2,-1.064806059E-1,9.757332802E0
6.721965108E1,6.580262631E-2,-1.304088384E-1,9.762118340E0
6.726965108E1,7.597211748E-2,-1.112662554E-1,9.752547264E0
6.731965108E1,7.597211748E-2,-1.208375469E-1,9.771689415E0
6.736965108E1,7.597211748E-2,-1.160518974E-1,9.780662537E0
6.741965108E1,8.075776696E-2,-1.160518974E-1,9.785448074E0
6.746965108E1,8.075776696E-2,-1.208375469E-1,9.766903877E0
6.751965108E1,7.597211748E-2,-1.112662554E-1,9.762118340E0
6.756965108E1,6.640082598E-2,-1.160518974E-1,9.776474953E0
6.761965108E1,6.580262631E-2,-1.016949639E-1,9.747760773E0
6.766965108E1,7.118647546E-2,-1.256231815E-1,9.785448074E0
6.771965108E1,7.118647546E-2,-1.208375469E-1,9.766903877E0
6.776965108E1,8.075776696E-2,-1.304088384E-1,9.781260490E0
6.781965108E1,7.597211748E-2,-1.304088384E-1,9.776474953E0
6.786965108E1,7.597211748E-2,-1.208375469E-1,9.776474953E0
6.791965108E1,6.580262631E-2,-1.256231815E-1,9.762118340E0
6.796965108E1,8.075776696E-2,-1.064806059E-1,9.757332802E0
6.801965108E1,7.118647546E-2,-1.064806059E-1,9.780662537E0
6.806965108E1,7.597211748E-2,-1.160518974E-1,9.766903877E0
6.811965108E1,8.015955985E-2,-1.256231815E-1,9.757332802E0
6.816965108E1,8.075776696E-2,-1.016949639E-1,9.775876999E0
6.821965108E1,7.118647546E-2,-1.208375469E-1,9.771689415E0
6.826965108E1,7.058826834E-2,-1.208375469E-1,9.747760773E0
6.831965108E1,7.597211748E-2,-1.064806059E-1,9.762118340E0
6.836965108E1,8.075776696E-2,-1.112662554E-1,9.771091461E0
6.841965108E1,7.118647546E-2,-1.160518974E-1,9.766903877E0
6.846965108E1,7.597211748E-2,-1.016949639E-1,9.771091461E0
6.851965108E1,7.118647546E-2,-1.016949639E-1,9.780662537E0
6.856965108E1,7.597211748E-2,-1.112662554E-1,9.771091461E0
6.861965108E1,7.118647546E-2,-1.112662554E-1,9.747760773E0
6.866965108E1,6.161518395E-2,-1.064806059E-1,9.776474953E0
6.871965108E1,9.032905847E-2,-1.208375469E-1,9.762118340E0
6.876965108E1,8.075776696E-2,-1.064806059E-1,9.771689415E0
6.881965108E1,6.640082598E-2,-1.112662554E-1,9.771689415E0
6.886965108E1,6.161518395E-2,-1.064806059E-1,9.766903877E0
6.891965108E1,6.640082598E-2,-1.256231815E-1,9.771689415E0
6.896965108E1,7.118647546E-2,-1.016949639E-1,9.781260490E0
6.901965108E1,8.015955985E-2,-1.256231815E-1,9.762118340E0
6.906965108E1,8.554340899E-2,-1.112662554E-1,9.766903877E0
6.911965108E1,8.075776696E-2,-1.064806059E-1,9.762118340E0
6.916965108E1,7.118647546E-2,-1.160518974E-1,9.766903877E0
6.921965108E1,8.075776696E-2,-1.304088384E-1,9.771689415E0
6.926965108E1,7.597211748E-2,-1.112662554E-1,9.757332802E0
6.931965108E1,7.118647546E-2,-1.112662554E-1,9.757332802E0
6.936965108E1,7.118647546E-2,-1.064806059E-1,9.757332802E0
6.941965108E1,8.075776696E-2,-1.160518974E-1,9.757332802E0
6.946965108E1,7.597211748E-2,-1.112662554E-1,9.756733894E0
6.951965108E1,8.075776696E-2,-1.064806059E-1,9.766305923E0
6.956965108E1,7.597211748E-2,-1.016949639E-1,9.766305923E0
6.961965108E1,7.118647546E-2,-1.208375469E-1,9.757332802E0
6.966965108E1,7.597211748E-2,-1.256231815E-1,9.771689415E0
6.971965108E1,7.537391037E-2,-1.351944804E-1,9.752547264E0
6.976965108E1,7.118647546E-2,-1.160518974E-1,9.762118340E0
6.981965108E1,9.511470050E-2,-1.112662554E-1,9.771091461E0
6.986965108E1,7.118647546E-2,-1.112662554E-1,9.747760773E0
6.991965108E1,8.075776696E-2,-1.064806059E-1,9.766305923E0
6.996965108E1,7.597211748E-2,-1.256231815E-1,9.762118340E0
7.001965108E1,7.118647546E-2,-1.112662554E-1,9.762118340E0
7.006965108E1,6.161518395E-2,-1.112662554E-1,9.771091461E0
7.011965108E1,6.580262631E-2,-1.208375469E-1,9.757332802E0
7.016965108E1,7.058826834E-2,-1.160518974E-1,9.757332802E0
7.021965108E1,7.597211748E-2,-1.160518974E-1,9.766903877E0
7.026965108E1,5.682953820E-2,-1.160518974E-1,9.762118340E0
7.031965108E1,7.118647546E-2,-1.112662554E-1,9.776474953E0
7.036965108E1,6.161518395E-2,-1.112662554E-1,9.762118340E0
7.041965108E1,7.118647546E-2,-1.160518974E-1,9.762118340E0
7.046965108E1,7.597211748E-2,-1.064806059E-1,9.762118340E0
7.051965108E1,6.640082598E-2,-1.208375469E-1,9.781260490E0
7.056965108E1,9.032905847E-2,-1.160518974E-1,9.757332802E0
7.061965108E1,7.118647546E-2,-1.112662554E-1,9.780662537E0
7.066965108E1,7.118647546E-2,-1.208375469E-1,9.771689415E0
7.071965108E1,6.161518395E-2,-1.208375469E-1,9.762118340E0
7.076965108E1,7.118647546E-2,-1.208375469E-1,9.766903877E0
7.081965108E1,7.118647546E-2,-1.112662554E-1,9.766903877E0
7.086965108E1,8.075776696E-2,-1.160518974E-1,9.766903877E0
7.091965108E1,6.640082598E-2,-1.160518974E-1,9.757332802E0
7.096965108E1,7.597211748E-2,-1.016949639E-1,9.771091461E0
7.101965108E1,7.118647546E-2,-1.112662554E-1,9.762118340E0
7.106965108E1,7.537391037E-2,-1.208375469E-1,9.747760773E0
7.111965108E1,7.597211748E-2,-1.160518974E-1,9.752547264E0
7.116965108E1,7.597211748E-2,-1.304088384E-1,9.766903877E0
7.121965108E1,7.118647546E-2,-1.208375469E-1,9.757332802E0
7.126965108E1,6.640082598E-2,-1.160518974E-1,9.762118340E0
7.131965108E1,8.075776696E-2,-1.256231815E-1,9.757332802E0
7.136965108E1,7.118647546E-2,-1.160518974E-1,9.775876999E0
7.141965108E1,7.597211748E-2,-1.016949639E-1,9.761520386E0
7.146965108E1,7.118647546E-2,-1.256231815E-1,9.766903877E0
7.151965108E1,7.597211748E-2,-9.212367237E-2,9.747760773E0
7.156965108E1,8.075776696E-2,-1.208375469E-1,9.766903877E0
7.161965108E1,8.075776696E-2,-1.064806059E-1,9.775876999E0
7.166965108E1,7.118647546E-2,-1.112662554E-1,9.762118340E0
7.171965108E1,6.580262631E-2,-1.256231815E-1,9.757332802E0
7.176965108E1,7.537391037E-2,-1.256231815E-1,9.747760773E0
7.181965108E1,7.597211748E-2,-1.208375469E-1,9.771689415E0
7.186965108E1,7.597211748E-2,-1.351944804E-1,9.766903877E0
7.191965108E1,7.597211748E-2,-1.112662554E-1,9.775876999E0
7.196965108E1,7.597211748E-2,-1.112662554E-1,9.762118340E0
7.201965108E1,5.682953820E-2,-1.154536903E-1,9.752547264E0
7.206965108E1,7.597211748E-2,-1.112662554E-1,9.785448074E0
7.211965108E1,7.118647546E-2,-1.064806059E-1,9.775876999E0
7.216965108E1,8.075776696E-2,-1.160518974E-1,9.747760773E0
7.221965108E1,8.554340899E-2,-9.690931439E-2,9.766305923E0
7.226965108E1,9.032905847E-2,-1.256231815E-1,9.757332802E0
7.231965108E1,7.118647546E-2,-1.208375469E-1,9.757332802E0
7.236965108E1,7.118647546E-2,-1.208375469E-1,9.771689415E0
7.241965108E1,7.597211748E-2,-1.208375469E-1,9.771689415E0
7.246965108E1,6.640082598E-2,-1.160518974E-1,9.762118340E0
7.251965108E1,7.597211748E-2,-1.064806059E-1,9.775876999E0
7.256965108E1,6.640082598E-2,-1.208375469E-1,9.785448074E0
7.261965108E1,8.554340899E-2,-1.016949639E-1,9.766305923E0
7.266965108E1,7.597211748E-2,-1.208375469E-1,9.771689415E0
7.271965108E1,7.058826834E-2,-1.208375469E-1,9.757332802E0
7.276965108E1,7.537391037E-2,-1.208375469E-1,9.752547264E0
7.281965108E1,6.580262631E-2,-1.304088384E-1,9.757332802E0
7.286965108E1,6.640082598E-2,-1.064806059E-1,9.766903877E0
7.291965108E1,8.554340899E-2,-9.690931439E-2,9.775876999E0
7.296965108E1,7.118647546E-2,-1.112662554E-1,9.766903877E0
7.301965108E1,8.075776696E-2,-1.112662554E-1,9.766305923E0
7.306965108E1,7.118647546E-2,-1.064806059E-1,9.762118340E0
7.311965108E1,7.118647546E-2,-1.016949639E-1,9.766305923E0
7.316965108E1,8.075776696E-2,-1.256231815E-1,9.771689415E0
7.321965108E1,8.075776696E-2,-1.064806059E-1,9.761520386E0
7.326965108E1,7.118647546E-2,-9.690931439E-2,9.775876999E0
7.331965108E1,6.580262631E-2,-1.202393398E-1,9.742975235E0
7.336965108E1,7.597211748E-2,-1.208375469E-1,9.756733894E0
7.341965108E1,7.597211748E-2,-1.208375469E-1,9.771689415E0
7.346965108E1,8.075776696E-2,-1.208375469E-1,9.762118340E0
7.351965108E1,6.161518395E-2,-9.690931439E-2,9.762118340E0
7.356965108E1,7.118647546E-2,-9.690931439E-2,9.775876999E0
7.361965108E1,7.597211748E-2,-1.160518974E-1,9.762118340E0
7.366965108E1,8.554340899E-2,-1.064806059E-1,9.762118340E0
7.371965108E1,6.640082598E-2,-1.064806059E-1,9.757332802E0
7.376965108E1,8.075776696E-2,-1.112662554E-1,9.780662537E0
7.381965108E1,6.161518395E-2,-1.160518974E-1,9.762118340E0
7.386965108E1,7.597211748E-2,-1.160518974E-1,9.766903877E0
7.391965108E1,7.597211748E-2,-1.112662554E-1,9.757332802E0
7.396965108E1,7.597211748E-2,-1.160518974E-1,9.762118340E0
7.401965108E1,7.118647546E-2,-1.160518974E-1,9.766903877E0
7.406965108E1,7.597211748E-2,-1.112662554E-1,9.775876999E0
7.411965108E1,7.118647546E-2,-1.064806059E-1,9.766903877E0
7.416965108E1,8.075776696E-2,-1.016949639E-1,9.747760773E0
7.421965108E1,6.640082598E-2,-1.208375469E-1,9.762118340E0
7.426965108E1,8.554340899E-2,-1.112662554E-1,9.757332802E0
7.431965108E1,7.537391037E-2,-1.304088384E-1,9.757332802E0
7.436965108E1,7.118647546E-2,-1.112662554E-1,9.785448074E0
7.441965108E1,8.075776696E-2,-1.208375469E-1,9.775876999E0
7.446965108E1,6.640082598E-2,-1.064806059E-1,9.775876999E0
7.451965108E1,6.640082598E-2,-1.208375469E-1,9.776474953E0
7.456965108E1,7.058826834E-2,-1.208375469E-1,9.742975235E0
7.461965108E1,7.118647546E-2,-1.112662554E-1,9.757332802E0
7.466965108E1,8.973085135E-2,-1.160518974E-1,9.757332802E0
7.471965108E1,7.597211748E-2,-1.160518974E-1,9.766903877E0
7.476965108E1,7.597211748E-2,-1.208375469E-1,9.762118340E0
7.481965108E1,6.640082598E-2,-1.064806059E-1,9.762118340E0
7.486965108E1,7.118647546E-2,-1.208375469E-1,9.771091461E0
7.491965108E1,6.640082598E-2,-1.160518974E-1,9.771689415E0
7.496965108E1,7.118647546E-2,-1.208375469E-1,9.766903877E0
7.501965108E1,8.075776696E-2,-1.256231815E-1,9.766903877E0
7.506965108E1,6.640082598E-2,-1.058823988E-1,9.752547264E0
7.511965108E1,8.075776696E-2,-1.112662554E-1,9.747760773E0
7.516965108E1,8.075776696E-2,-1.160518974E-1,9.771091461E0
7.521965108E1,7.118647546E-2,-1.160518974E-1,9.766903877E0
7.526965108E1,7.118647546E-2,-1.208375469E-1,9.766903877E0
7.531965108E1,7.118647546E-2,-1.304088384E-1,9.766903877E0
7.536965108E1,8.075776696E-2,-1.112662554E-1,9.775876999E0
7.541965108E1,7.118647546E-2,-1.064806059E-1,9.757332802E0
7.546965108E1,6.640082598E-2,-1.016949639E-1,9.766305923E0
7.551965108E1,7.597211748E-2,-1.160518974E-1,9.780662537E0
7.556965108E1,6.640082598E-2,-1.160518974E-1,9.776474953E0
7.561965108E1,7.118647546E-2,-1.160518974E-1,9.775876999E0
7.566965108E1,7.118647546E-2,-1.160518974E-1,9.757332802E0
7.571965108E1,7.118647546E-2,-1.160518974E-1,9.771689415E0
7.576965108E1,7.118647546E-2,-1.160518974E-1,9.747760773E0
7.581965108E1,8.554340899E-2,-1.256231815E-1,9.766903877E0
7.586965108E1,7.537391037E-2,-1.351944804E-1,9.762118340E0
7.591965108E1,7.118647546E-2,-1.208375469E-1,9.766903877E0
7.596965108E1,7.597211748E-2,-1.160518974E-1,9.771091461E0
7.601965108E1,6.640082598E-2,-1.112662554E-1,9.757332802E0
7.606965108E1,7.118647546E-2,-1.112662554E-1,9.766903877E0
7.611965108E1,8.554340899E-2,-1.064806059E-1,9.771091461E0
7.616965108E1,7.118647546E-2,-1.160518974E-1,9.762118340E0
7.621965108E1,8.075776696E-2,-1.160518974E-1,9.766903877E0
7.626965108E1,7.597211748E-2,-1.112662554E-1,9.785448074E0
7.631965108E1,6.640082598E-2,-1.112662554E-1,9.766903877E0
7.636965108E1,7.058826834E-2,-1.304088384E-1,9.762118340E0
7.641965108E1,8.015955985E-2,-1.256231815E-1,9.757332802E0
7.646965108E1,7.597211748E-2,-1.208375469E-1,9.752547264E0
7.651965108E1,7.597211748E-2,-1.208375469E-1,9.757332802E0
7.656965108E1,5.682953820E-2,-1.064806059E-1,9.752547264E0
7.661965108E1,7.118647546E-2,-1.208375469E-1,9.766903877E0
7.666965108E1,7.597211748E-2,-1.112662554E-1,9.775876999E0
7.671965108E1,6.161518395E-2,-1.016949639E-1,9.766305923E0
7.676965108E1,7.118647546E-2,-1.112662554E-1,9.757332802E0
7.681965108E1,6.640082598E-2,-1.208375469E-1,9.780662537E0
7.686965108E1,6.640082598E-2,-1.160518974E-1,9.780662537E0
7.691965108E1,7.537391037E-2,-1.256231815E-1,9.757332802E0
7.696965108E1,7.058826834E-2,-1.256231815E-1,9.762118340E0
7.701965108E1,6.161518395E-2,-1.208375469E-1,9.766903877E0
7.706965108E1,7.118647546E-2,-1.304088384E-1,9.781260490E0
7.711965108E1,8.075776696E-2,-1.304088384E-1,9.771091461E0
7.716965108E1,6.640082598E-2,-1.016949639E-1,9.771091461E0
7.721965108E1,7.118647546E-2,-1.208375469E-1,9.766903877E0
7.726965108E1,7.118647546E-2,-1.064806059E-1,9.771091461E0
7.731965108E1,7.597211748E-2,-1.208375469E-1,9.786046028E0
7.736965108E1,6.640082598E-2,-1.208375469E-1,9.762118340E0
7.741965108E1,7.118647546E-2,-1.160518974E-1,9.766305923E0
7.746965108E1,9.511470050E-2,-1.112662554E-1,9.766305923E0
7.751965108E1,8.554340899E-2,-1.064806059E-1,9.780662537E0
7.756965108E1,7.058826834E-2,-1.304088384E-1,9.762118340E0
7.761965108E1,7.118647546E-2,-1.064806059E-1,9.761520386E0
7.766965108E1,7.058826834E-2,-1.208375469E-1,9.752547264E0
7.771965108E1,6.640082598E-2,-1.112662554E-1,9.776474953E0
7.776965108E1,7.118647546E-2,-1.064806059E-1,9.766305923E0
7.781965108E1,7.118647546E-2,-1.064806059E-1,9.762118340E0
7.786965108E1,8.075776696E-2,-1.112662554E-1,9.762118340E0
7.791965108E1,8.075776696E-2,-1.160518974E-1,9.775876999E0
7.796965108E1,6.640082598E-2,-1.202393398E-1,9.766305923E0
7.801965108E1,7.597211748E-2,-1.064806059E-1,9.762118340E0
7.806965108E1,7.118647546E-2,-1.112662554E-1,9.771689415E0
7.811965108E1,8.015955985E-2,-1.112662554E-1,9.742975235E0
7.816965108E1,6.640082598E-2,-1.112662554E-1,9.762118340E0
7.821965108E1,7.597211748E-2,-1.160518974E-1,9.776474953E0
7.826965108E1,7.118647546E-2,-1.160518974E-1,9.766903877E0
7.831965108E1,7.597211748E-2,-1.160518974E-1,9.771091461E0
7.836965108E1,7.118647546E-2,-1.256231815E-1,9.771689415E0
7.841965108E1,7.058826834E-2,-1.256231815E-1,9.757332802E0
7.846965108E1,8.075776696E-2,-1.208375469E-1,9.775876999E0
7.851965108E1,6.640082598E-2,-1.208375469E-1,9.776474953E0
7.856965108E1,7.118647546E-2,-1.112662554E-1,9.757332802E0
7.861965108E1,7.597211748E-2,-1.064806059E-1,9.761520386E0
7.866965108E1,7.118647546E-2,-1.160518974E-1,9.761520386E0
7.871965108E1,7.597211748E-2,-1.112662554E-1,9.756733894E0
7.876965108E1,7.118647546E-2,-1.112662554E-1,9.775876999E0
7.881965108E1,8.075776696E-2,-1.064806059E-1,9.775876999E0
7.886965108E1,7.118647546E-2,-1.064806059E-1,9.775876999E0
7.891965108E1,8.554340899E-2,-1.160518974E-1,9.751948357E0
7.896965108E1,7.118647546E-2,-1.160518974E-1,9.761520386E0
7.901965108E1,7.118647546E-2,-1.112662554E-1,9.771091461E0
7.906965108E1,9.032905847E-2,-1.160518974E-1,9.766305923E0
7.911965108E1,8.075776696E-2,-1.160518974E-1,9.757332802E0
7.916965108E1,8.075776696E-2,-1.208375469E-1,9.752547264E0
7.921965108E1,7.597211748E-2,-1.304088384E-1,9.757332802E0
7.926965108E1,6.640082598E-2,-1.112662554E-1,9.771091461E0
7.931965108E1,7.597211748E-2,-1.160518974E-1,9.757332802E0
7.936965108E1,7.597211748E-2,-9.690931439E-2,9.762118340E0
7.941965108E1,7.597211748E-2,-1.160518974E-1,9.795019150E0
7.946965108E1,6.640082598E-2,-1.106680483E-1,9.752547264E0
7.951965108E1,6.161518395E-2,-1.208375469E-1,9.766903877E0
7.956965108E1,7.597211748E-2,-1.208375469E-1,9.762118340E0
7.961965108E1,7.118647546E-2,-1.304088384E-1,9.776474953E0
7.966965108E1,8.075776696E-2,-1.064806059E-1,9.762118340E0
7.971965108E1,7.597211748E-2,-1.112662554E-1,9.766903877E0
7.976965108E1,7.597211748E-2,-1.112662554E-1,9.757332802E0
7.981965108E1,8.554340899E-2,-1.112662554E-1,9.775876999E0
7.986965108E1,6.640082598E-2,-1.106680483E-1,9.752547264E0
7.991965108E1,8.075776696E-2,-1.064806059E-1,9.766305923E0
7.996965108E1,8.554340899E-2,-1.064806059E-1,9.771091461E0
8.001965108E1,7.597211748E-2,-9.212367237E-2,9.752547264E0
8.006965108E1,7.537391037E-2,-1.256231815E-1,9.757332802E0
8.011965108E1,9.032905847E-2,-1.256231815E-1,9.771689415E0
8.016965108E1,8.075776696E-2,-1.160518974E-1,9.757332802E0
8.021965108E1,8.554340899E-2,-1.112662554E-1,9.757332802E0
8.026965108E1,7.597211748E-2,-1.160518974E-1,9.762118340E0
8.031965108E1,7.597211748E-2,-1.112662554E-1,9.766903877E0
8.036965108E1,8.075776696E-2,-1.304088384E-1,9.762118340E0
8.041965108E1,7.118647546E-2,-1.160518974E-1,9.776474953E0
8.046965108E1,6.640082598E-2,-1.160518974E-1,9.771689415E0
8.051965108E1,6.161518395E-2,-1.160518974E-1,9.776474953E0
8.056965108E1,7.118647546E-2,-1.160518974E-1,9.766903877E0
8.061965108E1,7.058826834E-2,-1.112662554E-1,9.742975235E0
8.066965108E1,8.075776696E-2,-1.064806059E-1,9.752547264E0
8.071965108E1,8.494520187E-2,-1.160518974E-1,9.742975235E0
8.076965108E1,7.597211748E-2,-1.112662554E-1,9.762118340E0
8.081965108E1,7.597211748E-2,-1.112662554E-1,9.766903877E0
8.086965108E1,7.118647546E-2,-9.690931439E-2,9.757332802E0
8.091965108E1,5.682953820E-2,-1.058823988E-1,9.762118340E0
8.096965108E1,8.554340899E-2,-1.016949639E-1,9.785448074E0
8.101965108E1,7.118647546E-2,-1.208375469E-1,9.762118340E0
8.106965108E1,7.118647546E-2,-1.064806059E-1,9.766903877E0
8.111965108E1,8.015955985E-2,-1.256231815E-1,9.757332802E0
8.116965108E1,6.640082598E-2,-1.256231815E-1,9.757332802E0
8.121965108E1,7.118647546E-2,-1.256231815E-1,9.781260490E0
8.126965108E1,7.118647546E-2,-1.016949639E-1,9.766903877E0
8.131965108E1,7.118647546E-2,-1.064806059E-1,9.747760773E0
8.136965108E1,7.118647546E-2,-1.064806059E-1,9.771091461E0
8.141965108E1,7.597211748E-2,-1.016949639E-1,9.771091461E0
8.146965108E1,7.118647546E-2,-9.690931439E-2,9.761520386E0
8.151965108E1,7.118647546E-2,-1.112662554E-1,9.762118340E0
8.156965108E1,8.075776696E-2,-1.112662554E-1,9.747760773E0
8.161965108E1,7.597211748E-2,-1.016949639E-1,9.766903877E0
8.166965108E1,6.640082598E-2,-1.208375469E-1,9.757332802E0
8.171965108E1,8.075776696E-2,-1.160518974E-1,9.771689415E0
8.176965108E1,8.554340899E-2,-1.160518974E-1,9.757332802E0
8.181965108E1,8.075776696E-2,-1.208375469E-1,9.762118340E0
8.186965108E1,7.118647546E-2,-1.256231815E-1,9.762118340E0
8.191965108E1,7.118647546E-2,-1.112662554E-1,9.766903877E0
8.196965108E1,7.597211748E-2,-1.208375469E-1,9.766903877E0
8.201965108E1,8.075776696E-2,-1.016949639E-1,9.775876999E0
8.206965108E1,7.597211748E-2,-1.160518974E-1,9.780662537E0
8.211965108E1,8.494520187E-2,-1.160518974E-1,9.757332802E0
8.216965108E1,7.118647546E-2,-1.112662554E-1,9.757332802E0
8.221965108E1,6.580262631E-2,-1.351944804E-1,9.766903877E0
8.226965108E1,7.118647546E-2,-1.160518974E-1,9.762118340E0
8.231965108E1,7.118647546E-2,-1.208375469E-1,9.762118340E0
8.236965108E1,8.075776696E-2,-1.064806059E-1,9.780662537E0
8.241965108E1,9.511470050E-2,-1.208375469E-1,9.785448074E0
8.246965108E1,8.494520187E-2,-1.160518974E-1,9.752547264E0
8.251965108E1,6.640082598E-2,-1.112662554E-1,9.766903877E0
8.256965108E1,7.597211748E-2,-1.208375469E-1,9.762118340E0
8.261965108E1,8.075776696E-2,-1.160518974E-1,9.766903877E0
8.266965108E1,6.640082598E-2,-1.016949639E-1,9.757332802E0
8.271965108E1,7.118647546E-2,-1.112662554E-1,9.766903877E0
8.276965108E1,6.640082598E-2,-1.064806059E-1,9.766903877E0
8.281965108E1,8.554340899E-2,-1.160518974E-1,9.766903877E0
8.286965108E1,6.640082598E-2,-1.160518974E-1,9.762118340E0
8.291965108E1,7.597211748E-2,-1.256231815E-1,9.766903877E0
8.296965108E1,6.640082598E-2,-1.208375469E-1,9.766903877E0
8.301965108E1,7.118647546E-2,-1.016949639E-1,9.771689415E0
8.306965108E1,8.075776696E-2,-1.112662554E-1,9.766903877E0
8.311965108E1,7.058826834E-2,-1.208375469E-1,9.752547264E0
8.316965108E1,7.118647546E-2,-1.112662554E-1,9.775876999E0
8.321965108E1,7.118647546E-2,-1.064806059E-1,9.747760773E0
8.326965108E1,7.058826834E-2,-1.256231815E-1,9.757332802E0
8.331965108E1,7.597211748E-2,-1.208375469E-1,9.762118340E0
8.336965108E1,6.640082598E-2,-9.690931439E-2,9.757332802E0
8.341965108E1,7.118647546E-2,-1.064806059E-1,9.766903877E0
8.346965108E1,7.118647546E-2,-1.064806059E-1,9.752547264E0
8.351965108E1,7.118647546E-2,-1.064806059E-1,9.781260490E0
8.356965108E1,6.101697683E-2,-1.256231815E-1,9.762118340E0
8.361965108E1,8.075776696E-2,-1.064806059E-1,9.762118340E0
8.366965108E1,6.640082598E-2,-1.016949639E-1,9.766903877E0
8.371965108E1,6.580262631E-2,-1.160518974E-1,9.747760773E0
8.376965108E1,8.554340899E-2,-1.112662554E-1,9.757332802E0
8.381965108E1,6.640082598E-2,-1.112662554E-1,9.771689415E0
8.386965108E1,7.597211748E-2,-1.112662554E-1,9.762118340E0
8.391965108E1,8.554340899E-2,-1.112662554E-1,9.786046028E0
8.396965108E1,6.640082598E-2,-1.112662554E-1,9.762118340E0
8.401965108E1,6.640082598E-2,-1.160518974E-1,9.776474953E0
8.406965108E1,7.058826834E-2,-1.160518974E-1,9.752547264E0
8.411965108E1,7.058826834E-2,-1.160518974E-1,9.747760773E0
8.416965108E1,8.075776696E-2,-1.112662554E-1,9.786046028E0
8.421965108E1,8.554340899E-2,-1.208375469E-1,9.771689415E0
8.426965108E1,8.554340899E-2,-1.256231815E-1,9.766903877E0
8.431965108E1,7.537391037E-2,-1.160518974E-1,9.752547264E0
8.436965108E1,7.597211748E-2,-1.112662554E-1,9.762118340E0
8.441965108E1,7.597211748E-2,-1.208375469E-1,9.781260490E0
8.446965108E1,8.554340899E-2,-1.160518974E-1,9.771689415E0
8.451965108E1,6.101697683E-2,-1.208375469E-1,9.766903877E0
8.456965108E1,9.511470050E-2,-1.160518974E-1,9.766903877E0
8.461965108E1,7.597211748E-2,-1.112662554E-1,9.762118340E0
8.466965108E1,7.118647546E-2,-1.160518974E-1,9.771689415E0
8.471965108E1,8.015955985E-2,-1.256231815E-1,9.757332802E0
8.476965108E1,7.537391037E-2,-1.160518974E-1,9.757332802E0
8.481965108E1,8.075776696E-2,-1.160518974E-1,9.781260490E0
8.486965108E1,7.537391037E-2,-1.256231815E-1,9.766903877E0
8.491965108E1,7.058826834E-2,-1.208375469E-1,9.757332802E0
8.496965108E1,6.161518395E-2,-1.064806059E-1,9.762118340E0
8.501965108E1,8.015955985E-2,-1.064806059E-1,9.747760773E0
8.506965108E1,6.640082598E-2,-1.160518974E-1,9.771689415E0
8.511965108E1,7.118647546E-2,-1.112662554E-1,9.766903877E0
8.516965108E1,7.058826834E-2,-1.208375469E-1,9.733404160E0
8.521965108E1,7.118647546E-2,-1.016949639E-1,9.766903877E0
8.526965108E1,7.058826834E-2,-1.256231815E-1,9.766903877E0
8.531965108E1,6.101697683E-2,-1.160518974E-1,9.757332802E0
8.536965108E1,6.101697683E-2,-1.160518974E-1,9.766903877E0
8.541965108E1,6.580262631E-2,-1.160518974E-1,9.766903877E0
8.546965108E1,8.554340899E-2,-1.112662554E-1,9.776474953E0
8.551965108E1,7.118647546E-2,-1.064806059E-1,9.757332802E0
8.556965108E1,6.640082598E-2,-1.112662554E-1,9.776474953E0
8.561965108E1,7.597211748E-2,-1.112662554E-1,9.766903877E0
8.566965108E1,8.075776696E-2,-1.064806059E-1,9.762118340E0
8.571965108E1,8.075776696E-2,-1.064806059E-1,9.776474953E0
8.576965108E1,6.640082598E-2,-1.160518974E-1,9.781260490E0
8.581965108E1,6.580262631E-2,-1.208375469E-1,9.766903877E0
8.586965108E1,7.537391037E-2,-1.160518974E-1,9.757332802E0
8.591965108E1,7.537391037E-2,-1.208375469E-1,9.762118340E0
8.596965108E1,8.015955985E-2,-1.160518974E-1,9.752547264E0
8.601965108E1,7.118647546E-2,-1.112662554E-1,9.766903877E0
8.606965108E1,5.623133108E-2,-1.064806059E-1,9.747760773E0
8.611965108E1,7.537391037E-2,-1.208375469E-1,9.766903877E0
8.616965108E1,6.640082598E-2,-1.064806059E-1,9.766903877E0
8.621965108E1,7.058826834E-2,-1.160518974E-1,9.752547264E0
8.626965108E1,8.973085135E-2,-1.160518974E-1,9.762118340E0
8.631965108E1,7.058826834E-2,-1.160518974E-1,9.757332802E0
8.636965108E1,8.015955985E-2,-1.256231815E-1,9.752547264E0
8.641965108E1,7.058826834E-2,-1.208375469E-1,9.771689415E0
8.646965108E1,7.058826834E-2,-1.064806059E-1,9.747760773E0
8.651965108E1,8.075776696E-2,-1.112662554E-1,9.762118340E0
8.656965108E1,7.537391037E-2,-1.160518974E-1,9.747760773E0
8.661965108E1,7.537391037E-2,-1.304088384E-1,9.766903877E0
8.666965108E1,6.580262631E-2,-1.208375469E-1,9.757332802E0
8.671965108E1,7.597211748E-2,-9.690931439E-2,9.771689415E0
8.676965108E1,8.015955985E-2,-1.064806059E-1,9.766903877E0
8.681965108E1,8.494520187E-2,-1.256231815E-1,9.766903877E0
8.686965108E1,8.015955985E-2,-1.112662554E-1,9.771689415E0
8.691965108E1,7.537391037E-2,-1.304088384E-1,9.781260490E0
8.696965108E1,6.101697683E-2,-1.208375469E-1,9.762118340E0
8.701965108E1,7.118647546E-2,-1.160518974E-1,9.776474953E0
8.706965108E1,8.015955985E-2,-1.208375469E-1,9.757332802E0
8.711965108E1,7.537391037E-2,-1.112662554E-1,9.752547264E0
8.716965108E1,7.118647546E-2,-9.690931439E-2,9.781260490E0
8.721965108E1,8.554340899E-2,-1.016949639E-1,9.762118340E0
8.726965108E1,6.640082598E-2,-1.112662554E-1,9.771689415E0
8.731965108E1,8.554340899E-2,-1.160518974E-1,9.786046028E0
8.736965108E1,8.554340899E-2,-9.690931439E-2,9.757332802E0
8.741965108E1,8.494520187E-2,-1.160518974E-1,9.762118340E0
8.746965108E1,7.537391037E-2,-1.208375469E-1,9.766903877E0
8.751965108E1,5.144568533E-2,-1.160518974E-1,9.762118340E0
8.756965108E1,7.537391037E-2,-1.256231815E-1,9.766903877E0
8.761965108E1,8.075776696E-2,-1.112662554E-1,9.776474953E0
8.766965108E1,7.537391037E-2,-1.064806059E-1,9.757332802E0
8.771965108E1,6.640082598E-2,-1.064806059E-1,9.776474953E0
8.776965108E1,7.058826834E-2,-1.208375469E-1,9.747760773E0
8.781965108E1,8.075776696E-2,-1.016949639E-1,9.781260490E0
8.786965108E1,9.511470050E-2,-1.112662554E-1,9.781260490E0
8.791965108E1,6.101697683E-2,-1.304088384E-1,9.757332802E0
8.796965108E1,6.640082598E-2,-9.690931439E-2,9.766903877E0
8.801965108E1,7.537391037E-2,-1.304088384E-1,9.762118340E0
8.806965108E1,7.058826834E-2,-1.160518974E-1,9.766903877E0
8.811965108E1,7.058826834E-2,-1.160518974E-1,9.752547264E0
8.816965108E1,6.101697683E-2,-1.016949639E-1,9.747760773E0
8.821965108E1,8.075776696E-2,-1.208375469E-1,9.766903877E0
8.826965108E1,6.161518395E-2,-1.064806059E-1,9.762118340E0
8.831965108E1,6.101697683E-2,-1.160518974E-1,9.762118340E0
8.836965108E1,7.058826834E-2,-1.064806059E-1,9.757332802E0
8.841965108E1,6.580262631E-2,-1.064806059E-1,9.747760773E0
8.846965108E1,7.537391037E-2,-1.208375469E-1,9.771689415E0
8.851965108E1,6.580262631E-2,-1.304088384E-1,9.757332802E0
8.856965108E1,6.161518395E-2,-1.112662554E-1,9.766903877E0
8.861965108E1,6.640082598E-2,-1.016949639E-1,9.762118340E0
8.866965108E1,7.597211748E-2,-1.016949639E-1,9.771689415E0
8.871965108E1,6.580262631E-2,-1.160518974E-1,9.757332802E0
8.876965108E1,6.101697683E-2,-1.256231815E-1,9.766903877E0
8.881965108E1,8.075776696E-2,-1.160518974E-1,9.771689415E0
8.886965108E1,7.118647546E-2,-1.064806059E-1,9.776474953E0
8.891965108E1,7.537391037E-2,-1.256231815E-1,9.762118340E0
8.896965108E1,7.537391037E-2,-1.208375469E-1,9.752547264E0
8.901965108E1,8.015955985E-2,-1.160518974E-1,9.752547264E0
8.906965108E1,8.015955985E-2,-1.208375469E-1,9.762118340E0
8.911965108E1,8.075776696E-2,-1.016949639E-1,9.771689415E0
8.916965108E1,7.058826834E-2,-1.112662554E-1,9.776474953E0
8.921965108E1,7.058826834E-2,-1.112662554E-1,9.747760773E0
8.926965108E1,8.015955985E-2,-1.016949639E-1,9.752547264E0
8.931965108E1,7.058826834E-2,-1.112662554E-1,9.762118340E0
8.936965108E1,6.580262631E-2,-1.016949639E-1,9.752547264E0
8.941965108E1,6.580262631E-2,-1.351944804E-1,9.757332802E0
8.946965108E1,6.161518395E-2,-1.112662554E-1,9.771689415E0
8.951965108E1,7.058826834E-2,-1.112662554E-1,9.766903877E0
8.956965108E1,6.580262631E-2,-1.160518974E-1,9.766903877E0
8.961965108E1,7.058826834E-2,-1.112662554E-1,9.771689415E0
8.966965108E1,7.537391037E-2,-1.160518974E-1,9.776474953E0
8.971965108E1,6.640082598E-2,-1.064806059E-1,9.762118340E0
8.976965108E1,8.494520187E-2,-1.112662554E-1,9.752547264E0
8.981965108E1,7.058826834E-2,-1.208375469E-1,9.762118340E0
8.986965108E1,8.015955985E-2,-1.064806059E-1,9.747760773E0
8.991965108E1,7.597211748E-2,-1.112662554E-1,9.776474953E0
8.996965108E1,8.015955985E-2,-1.160518974E-1,9.771689415E0
9.001965108E1,7.058826834E-2,-1.256231815E-1,9.757332802E0
9.006965108E1,8.494520187E-2,-1.160518974E-1,9.762118340E0
9.011965108E1,7.537391037E-2,-1.256231815E-1,9.766903877E0
9.016965108E1,6.580262631E-2,-1.208375469E-1,9.771689415E0
9.021965108E1,7.058826834E-2,-1.208375469E-1,9.752547264E0
9.026965108E1,7.058826834E-2,-1.112662554E-1,9.757332802E0
9.031965108E1,7.597211748E-2,-1.016949639E-1,9.762118340E0
9.036965108E1,7.058826834E-2,-1.208375469E-1,9.762118340E0
9.041965108E1,8.494520187E-2,-1.160518974E-1,9.752547264E0
9.046965108E1,7.058826834E-2,-1.112662554E-1,9.757332802E0
9.051965108E1,6.580262631E-2,-1.112662554E-1,9.771689415E0
9.056965108E1,9.451649338E-2,-1.160518974E-1,9.752547264E0
9.061965108E1,6.101697683E-2,-1.112662554E-1,9.752547264E0
9.066965108E1,7.058826834E-2,-1.112662554E-1,9.766903877E0
9.071965108E1,8.554340899E-2,-9.690931439E-2,9.757332802E0
9.076965108E1,7.537391037E-2,-1.160518974E-1,9.766903877E0
9.081965108E1,7.537391037E-2,-1.256231815E-1,9.771689415E0
9.086965108E1,7.118647546E-2,-1.016949639E-1,9.790832520E0
9.091965108E1,6.580262631E-2,-1.016949639E-1,9.766903877E0
9.096965108E1,8.973085135E-2,-1.112662554E-1,9.771689415E0
9.101965108E1,7.058826834E-2,-1.160518974E-1,9.757332802E0
9.106965108E1,7.058826834E-2,-1.160518974E-1,9.766903877E0
9.111965108E1,7.537391037E-2,-1.351944804E-1,9.742975235E0
9.116965108E1,8.494520187E-2,-1.160518974E-1,9.752547264E0
9.121965108E1,7.058826834E-2,-1.256231815E-1,9.766903877E0
9.126965108E1,8.015955985E-2,-1.112662554E-1,9.762118340E0
9.131965108E1,8.973085135E-2,-1.112662554E-1,9.752547264E0
9.136965108E1,7.597211748E-2,-9.690931439E-2,9.757332802E0
9.141965108E1,7.058826834E-2,-1.304088384E-1,9.762118340E0
9.146965108E1,6.580262631E-2,-1.208375469E-1,9.762118340E0
9.151965108E1,8.015955985E-2,-1.160518974E-1,9.752547264E0
9.156965108E1,7.537391037E-2,-1.208375469E-1,9.747760773E0
9.161965108E1,7.058826834E-2,-1.304088384E-1,9.766903877E0
9.166965108E1,7.537391037E-2,-1.112662554E-1,9.757332802E0
9.171965108E1,6.580262631E-2,-1.304088384E-1,9.766903877E0
9.176965108E1,7.537391037E-2,-1.064806059E-1,9.752547264E0
9.181965108E1,8.015955985E-2,-1.064806059E-1,9.757332802E0
9.186965108E1,8.075776696E-2,-1.064806059E-1,9.766903877E0
9.191965108E1,8.075776696E-2,-1.112662554E-1,9.757332802E0
9.196965108E1,6.640082598E-2,-1.160518974E-1,9.766903877E0
9.201965108E1,9.032905847E-2,-1.016949639E-1,9.771689415E0
9.206965108E1,8.494520187E-2,-1.112662554E-1,9.752547264E0
9.211965108E1,7.537391037E-2,-1.160518974E-1,9.762118340E0
9.216965108E1,6.580262631E-2,-1.256231815E-1,9.762118340E0
9.221965108E1,7.118647546E-2,-1.160518974E-1,9.776474953E0
9.226965108E1,7.597211748E-2,-1.064806059E-1,9.771689415E0
9.231965108E1,7.597211748E-2,-1.112662554E-1,9.771689415E0
9.236965108E1,6.640082598E-2,-1.112662554E-1,9.781260490E0
9.241965108E1,6.640082598E-2,-1.256231815E-1,9.776474953E0
9.246965108E1,7.058826834E-2,-1.160518974E-1,9.766903877E0
9.251965108E1,7.537391037E-2,-1.256231815E-1,9.766903877E0
9.256965108E1,7.537391037E-2,-1.256231815E-1,9.771689415E0
9.261965108E1,7.058826834E-2,-1.160518974E-1,9.757332802E0
9.266965108E1,8.015955985E-2,-1.256231815E-1,9.757332802E0
9.271965108E1,7.537391037E-2,-1.160518974E-1,9.766903877E0
9.276965108E1,7.537391037E-2,-1.256231815E-1,9.762118340E0
9.281965108E1,7.537391037E-2,-1.160518974E-1,9.776474953E0
9.286965108E1,7.597211748E-2,-1.064806059E-1,9.781260490E0
9.291965108E1,6.640082598E-2,-1.064806059E-1,9.771689415E0
9.296965108E1,7.597211748E-2,-1.112662554E-1,9.781260490E0
9.301965108E1,8.554340899E-2,-1.064806059E-1,9.762118340E0
9.306965108E1,7.537391037E-2,-1.208375469E-1,9.757332802E0
9.311965108E1,9.032905847E-2,-1.160518974E-1,9.766903877E0
9.316965108E1,8.554340899E-2,-1.112662554E-1,9.776474953E0
9.321965108E1,7.597211748E-2,-1.064806059E-1,9.776474953E0
9.326965108E1,8.015955985E-2,-1.160518974E-1,9.776474953E0
9.331965108E1,6.580262631E-2,-1.399801224E-1,9.771689415E0
9.336965108E1,7.118647546E-2,-1.160518974E-1,9.781260490E0
9.341965108E1,7.118647546E-2,-1.064806059E-1,9.781260490E0
9.346965108E1,7.597211748E-2,-1.064806059E-1,9.766903877E0
9.351965108E1,7.537391037E-2,-1.016949639E-1,9.757332802E0
9.356965108E1,8.075776696E-2,-1.160518974E-1,9.776474953E0
9.361965108E1,7.537391037E-2,-1.208375469E-1,9.762118340E0
9.366965108E1,6.101697683E-2,-1.160518974E-1,9.766903877E0
9.371965108E1,7.118647546E-2,-1.208375469E-1,9.776474953E0
9.376965108E1,7.058826834E-2,-1.208375469E-1,9.752547264E0
9.381965108E1,6.580262631E-2,-1.112662554E-1,9.757332802E0
9.386965108E1,6.580262631E-2,-1.208375469E-1,9.757332802E0
9.391965108E1,8.015955985E-2,-1.304088384E-1,9.771689415E0
9.396965108E1,7.537391037E-2,-1.256231815E-1,9.776474953E0
9.401965108E1,7.058826834E-2,-1.016949639E-1,9.752547264E0
9.406965108E1,9.032905847E-2,-9.690931439E-2,9.762118340E0
9.411965108E1,8.015955985E-2,-1.160518974E-1,9.762118340E0
9.416965108E1,8.075776696E-2,-1.016949639E-1,9.762118340E0
9.421965108E1,8.015955985E-2,-1.160518974E-1,9.766903877E0
9.426965108E1,6.580262631E-2,-1.304088384E-1,9.747760773E0
9.431965108E1,7.537391037E-2,-1.160518974E-1,9.757332802E0
9.436965108E1,8.015955985E-2,-1.064806059E-1,9.738189697E0
9.441965108E1,8.015955985E-2,-1.112662554E-1,9.747760773E0
9.446965108E1,8.075776696E-2,-1.112662554E-1,9.766903877E0
9.451965108E1,8.554340899E-2,-1.064806059E-1,9.766903877E0
9.456965108E1,7.597211748E-2,-1.208375469E-1,9.776474953E0
9.461965108E1,8.494520187E-2,-1.304088384E-1,9.752547264E0
9.466965108E1,7.597211748E-2,-1.208375469E-1,9.776474953E0
9.471965108E1,9.032905847E-2,-1.064806059E-1,9.776474953E0
9.476965108E1,7.118647546E-2,-1.160518974E-1,9.776474953E0
9.481965108E1,7.058826834E-2,-1.256231815E-1,9.762118340E0
9.486965108E1,7.058826834E-2,-1.304088384E-1,9.766903877E0
9.491965108E1,8.075776696E-2,-1.112662554E-1,9.766903877E0
9.496965108E1,7.118647546E-2,-9.690931439E-2,9.757332802E0
9.501965108E1,7.597211748E-2,-1.064806059E-1,9.766903877E0
9.506965108E1,7.597211748E-2,-1.208375469E-1,9.766903877E0
9.511965108E1,8.015955985E-2,-1.351944804E-1,9.776474953E0
9.516965108E1,7.597211748E-2,-1.160518974E-1,9.771689415E0
9.521965108E1,7.118647546E-2,-1.160518974E-1,9.781260490E0
9.526965108E1,6.101697683E-2,-1.160518974E-1,9.752547264E0
9.531965108E1,8.015955985E-2,-1.160518974E-1,9.757332802E0
9.536965108E1,8.554340899E-2,-1.160518974E-1,9.776474953E0
9.541965108E1,6.580262631E-2,-1.208375469E-1,9.752547264E0
9.546965108E1,8.015955985E-2,-1.256231815E-1,9.771689415E0
9.551965108E1,8.015955985E-2,-1.304088384E-1,9.762118340E0
9.556965108E1,7.118647546E-2,-1.112662554E-1,9.762118340E0
9.561965108E1,6.580262631E-2,-1.112662554E-1,9.757332802E0
9.566965108E1,7.118647546E-2,-1.160518974E-1,9.771689415E0
9.571965108E1,7.118647546E-2,-1.160518974E-1,9.771689415E0
9.576965108E1,6.640082598E-2,-1.112662554E-1,9.766903877E0
9.581965108E1,7.597211748E-2,-1.160518974E-1,9.771689415E0
9.586965108E1,7.597211748E-2,-1.160518974E-1,9.762118340E0
9.591965108E1,7.597211748E-2,-1.160518974E-1,9.766903877E0
9.596965108E1,7.597211748E-2,-1.064806059E-1,9.766903877E0
9.601965108E1,8.015955985E-2,-1.160518974E-1,9.757332802E0
9.606965108E1,8.075776696E-2,-1.064806059E-1,9.766903877E0
9.611965108E1,7.597211748E-2,-1.064806059E-1,9.766903877E0
9.616965108E1,6.640082598E-2,-1.064806059E-1,9.762118340E0
9.621965108E1,8.494520187E-2,-1.112662554E-1,9.757332802E0
9.626965108E1,6.580262631E-2,-1.160518974E-1,9.757332802E0
9.631965108E1,6.161518395E-2,-1.208375469E-1,9.776474953E0
9.636965108E1,7.058826834E-2,-1.208375469E-1,9.757332802E0
9.641965108E1,6.640082598E-2,-1.112662554E-1,9.762118340E0
9.646965108E1,7.118647546E-2,-1.112662554E-1,9.776474953E0
9.651965108E1,6.580262631E-2,-1.112662554E-1,9.762118340E0
9.656965108E1,7.537391037E-2,-1.064806059E-1,9.757332802E0
9.661965108E1,7.118647546E-2,-1.112662554E-1,9.771689415E0
9.666965108E1,5.682953820E-2,-1.064806059E-1,9.757332802E0
9.671965108E1,5.144568533E-2,-1.112662554E-1,9.757332802E0
9.676965108E1,5.623133108E-2,-1.112662554E-1,9.757332802E0
9.681965108E1,8.554340899E-2,-1.112662554E-1,9.766903877E0
9.686965108E1,7.537391037E-2,-1.208375469E-1,9.762118340E0
9.691965108E1,6.101697683E-2,-1.208375469E-1,9.747760773E0
9.696965108E1,5.682953820E-2,-1.208375469E-1,9.766903877E0
9.701965108E1,6.640082598E-2,-1.064806059E-1,9.776474953E0
9.706965108E1,6.640082598E-2,-1.064806059E-1,9.766903877E0
9.711965108E1,8.075776696E-2,-1.064806059E-1,9.752547264E0
9.716965108E1,7.118647546E-2,-1.064806059E-1,9.762118340E0
9.721965108E1,7.597211748E-2,-1.208375469E-1,9.771689415E0
9.726965108E1,8.973085135E-2,-1.208375469E-1,9.752547264E0
9.731965108E1,7.537391037E-2,-1.208375469E-1,9.752547264E0
9.736965108E1,7.537391037E-2,-1.256231815E-1,9.766903877E0
9.741965108E1,7.058826834E-2,-1.351944804E-1,9.752547264E0
9.746965108E1,6.580262631E-2,-1.208375469E-1,9.757332802E0
9.751965108E1,7.058826834E-2,-1.256231815E-1,9.762118340E0
9.756965108E1,6.101697683E-2,-1.160518974E-1,9.757332802E0
9.761965108E1,7.118647546E-2,-1.160518974E-1,9.766903877E0
9.766965108E1,7.597211748E-2,-1.160518974E-1,9.766903877E0
9.771965108E1,7.118647546E-2,-1.064806059E-1,9.766903877E0
9.776965108E1,7.058826834E-2,-1.256231815E-1,9.762118340E0
9.781965108E1,8.075776696E-2,-1.112662554E-1,9.771689415E0
9.786965108E1,7.537391037E-2,-1.304088384E-1,9.742975235E0
9.791965108E1,6.101697683E-2,-1.304088384E-1,9.757332802E0
9.796965108E1,8.015955985E-2,-1.208375469E-1,9.747760773E0
9.801965108E1,8.075776696E-2,-1.160518974E-1,9.771689415E0
9.806965108E1,7.597211748E-2,-1.112662554E-1,9.781260490E0
9.811965108E1,6.580262631E-2,-1.208375469E-1,9.776474953E0
9.816965108E1,8.554340899E-2,-1.112662554E-1,9.766903877E0
9.821965108E1,7.118647546E-2,-1.112662554E-1,9.766903877E0
9.826965108E1,7.597211748E-2,-1.064806059E-1,9.766903877E0
9.831965108E1,7.597211748E-2,-1.160518974E-1,9.762118340E0
9.836965108E1,7.058826834E-2,-1.304088384E-1,9.776474953E0
9.841965108E1,6.101697683E-2,-1.304088384E-1,9.771689415E0
9.846965108E1,7.537391037E-2,-1.160518974E-1,9.747760773E0
9.851965108E1,7.597211748E-2,-1.016949639E-1,9.762118340E0
9.856965108E1,6.101697683E-2,-1.112662554E-1,9.747760773E0
9.861965108E1,6.640082598E-2,-1.016949639E-1,9.762118340E0
9.866965108E1,6.640082598E-2,-1.160518974E-1,9.766903877E0
9.871965108E1,6.161518395E-2,-1.064806059E-1,9.771689415E0
9.876965108E1,7.118647546E-2,-1.064806059E-1,9.762118340E0
9.881965108E1,8.494520187E-2,-1.160518974E-1,9.757332802E0
9.886965108E1,8.554340899E-2,-1.112662554E-1,9.762118340E0
9.891965108E1,6.640082598E-2,-9.690931439E-2,9.771689415E0
9.896965108E1,6.580262631E-2,-1.112662554E-1,9.752547264E0
9.901965108E1,7.058826834E-2,-1.160518974E-1,9.771689415E0
9.906965108E1,7.537391037E-2,-1.160518974E-1,9.762118340E0
9.911965108E1,8.015955985E-2,-1.256231815E-1,9.771689415E0
9.916965108E1,7.058826834E-2,-1.112662554E-1,9.771689415E0
9.921965108E1,7.597211748E-2,-1.160518974E-1,9.776474953E0
9.926965108E1,6.161518395E-2,-1.112662554E-1,9.771689415E0
9.931965108E1,6.161518395E-2,-1.112662554E-1,9.781260490E0
9.936965108E1,7.058826834E-2,-1.064806059E-1,9.757332802E0
9.941965108E1,5.144568533E-2,-1.112662554E-1,9.757332802E0
9.946965108E1,7.537391037E-2,-1.208375469E-1,9.766903877E0
9.951965108E1,6.640082598E-2,-1.160518974E-1,9.781260490E0
9.956965108E1,7.537391037E-2,-1.112662554E-1,9.762118340E0
9.961965108E1,8.075776696E-2,-1.112662554E-1,9.771689415E0
9.966965108E1,8.494520187E-2,-1.160518974E-1,9.752547264E0
9.971965108E1,8.554340899E-2,-1.016949639E-1,9.776474953E0
9.976965108E1,7.537391037E-2,-1.160518974E-1,9.766903877E0
9.981965108E1,7.597211748E-2,-1.112662554E-1,9.771689415E0
9.986965108E1,8.015955985E-2,-1.256231815E-1,9.766903877E0
9.991965108E1,8.015955985E-2,-1.064806059E-1,9.762118340E0
