"Time (s)","Gyroscope x (rad/s)","Gyroscope y (rad/s)","Gyroscope z (rad/s)"
8.455110900E-2,6.108652451E-4,7.635815418E-4,-3.054326226E-4
1.345511090E-1,-3.054326167E-3,7.635815418E-4,-3.054326226E-4
1.845511090E-1,-1.832595794E-3,7.635815418E-4,-3.054326226E-4
2.345511090E-1,-6.108652451E-4,-4.581489484E-4,-3.054326226E-4
2.845511090E-1,1.832595794E-3,7.635815418E-4,-3.054326226E-4
3.345511090E-1,-6.108652451E-4,7.635815418E-4,-3.054326226E-4
3.845511090E-1,6.108652451E-4,-4.581489484E-4,-3.054326226E-4
4.345511090E-1,-6.108652451E-4,-4.581489484E-4,9.162978968E-4
4.845511090E-1,-6.108652451E-4,-1.679879380E-3,-3.054326226E-4
5.345511090E-1,-1.832595794E-3,7.635815418E-4,-3.054326226E-4
5.845511090E-1,-6.108652451E-4,-4.581489484E-4,-3.054326226E-4
6.345511090E-1,1.832595794E-3,-4.581489484E-4,-3.054326226E-4
6.845511090E-1,7.941247895E-3,-1.832595794E-3,7.635815418E-4
7.345511090E-1,7.941247895E-3,-1.832595794E-3,-4.581489484E-4
7.845511090E-1,1.832595794E-3,7.635815418E-4,9.162978968E-4
8.345511090E-1,-6.108652451E-4,1.985311974E-3,-3.054326226E-4
8.845511090E-1,6.108652451E-4,7.635815418E-4,9.162978968E-4
9.345511090E-1,6.108652451E-4,-4.581489484E-4,-3.054326226E-4
9.845511090E-1,6.108652451E-4,-4.581489484E-4,9.162978968E-4
1.034551109E0,6.108652451E-4,-4.581489484E-4,-3.054326226E-4
1.084551109E0,-1.832595794E-3,-2.901609987E-3,-3.054326226E-4
1.134551109E0,1.511891466E-2,-9.010262787E-3,-2.901609987E-3
1.184551109E0,5.497787148E-3,-6.566801574E-3,-4.581489484E-4
1.234551109E0,9.162978269E-3,6.108652451E-4,7.635815418E-4
1.284551109E0,7.941247895E-3,-6.108652451E-4,-4.581489484E-4
1.334551109E0,6.719517522E-3,-4.123340361E-3,7.635815418E-4
1.384551109E0,4.276056774E-3,-4.123340361E-3,9.162978968E-4
1.434551109E0,1.160643995E-2,-1.832595794E-3,7.635815418E-4
1.484551109E0,6.719517522E-3,-6.108652451E-4,7.635815418E-4
1.534551109E0,1.832595794E-3,-1.679879380E-3,-3.054326226E-4
1.584551109E0,-6.108652451E-4,7.635815418E-4,9.162978968E-4
1.634551109E0,-3.054326167E-3,-4.581489484E-4,9.162978968E-4
1.684551109E0,-3.054326167E-3,7.635815418E-4,-3.054326226E-4
1.734551109E0,-4.581489484E-4,1.985311974E-3,9.162978968E-4
1.784551109E0,-6.108652451E-4,1.985311974E-3,-3.054326226E-4
1.834551109E0,6.108652451E-4,7.635815418E-4,-3.054326226E-4
1.884551109E0,-4.581489484E-4,1.985311974E-3,9.162978968E-4
1.934551109E0,-6.108652451E-4,-1.679879380E-3,9.162978968E-4
1.984551109E0,6.108652451E-4,7.635815418E-4,9.162978968E-4
2.034551109E0,6.108652451E-4,-4.581489484E-4,-3.054326226E-4
2.084551109E0,6.108652451E-4,-4.581489484E-4,-3.054326226E-4
2.134551109E0,-6.108652451E-4,-4.581489484E-4,-3.054326226E-4
2.184551109E0,-1.832595794E-3,-1.679879380E-3,9.162978968E-4
2.234551109E0,-6.108652451E-4,-4.581489484E-4,-3.054326226E-4
2.284551109E0,-6.108652451E-4,-4.581489484E-4,-3.054326226E-4
2.334551109E0,6.108652451E-4,-4.581489484E-4,-3.054326226E-4
2.384551109E0,-6.108652451E-4,-1.679879380E-3,-3.054326226E-4
2.434551109E0,1.985311974E-3,3.054326167E-3,9.162978968E-4
2.484551109E0,5.497787148E-3,-4.123340361E-3,-3.054326226E-4
2.534551109E0,6.108652451E-4,-1.679879380E-3,9.162978968E-4
2.584551109E0,1.832595794E-3,1.832595794E-3,-3.054326226E-4
2.634551109E0,-1.679879380E-3,3.054326167E-3,-3.054326226E-4
2.684551109E0,-4.276056774E-3,-1.679879380E-3,-3.054326226E-4
2.734551109E0,-6.108652451E-4,7.635815418E-4,-3.054326226E-4
2.784551109E0,-6.108652451E-4,-1.374446787E-3,-3.054326226E-4
2.834551109E0,-6.108652451E-4,-1.527163113E-4,9.162978968E-4
2.884551109E0,-4.581489484E-4,1.069014193E-3,9.162978968E-4
2.934551109E0,6.108652451E-4,1.069014193E-3,-3.054326226E-4
2.984551109E0,1.832595794E-3,-1.527163113E-4,-3.054326226E-4
3.034551109E0,6.108652451E-4,-1.527163113E-4,9.162978968E-4
3.084551109E0,-6.108652451E-4,-1.527163113E-4,-3.054326226E-4
3.134551109E0,6.108652451E-4,-1.527163113E-4,-3.054326226E-4
3.184551109E0,-6.108652451E-4,1.069014193E-3,-3.054326226E-4
3.234551109E0,6.108652451E-4,9.162978968E-4,9.162978968E-4
3.284551109E0,-6.108652451E-4,-1.527163113E-4,-3.054326226E-4
3.334551109E0,1.832595794E-3,-1.527163113E-4,9.162978968E-4
3.384551109E0,6.108652451E-4,-2.596177394E-3,-3.054326226E-4
3.434551109E0,-6.108652451E-4,-1.527163113E-4,9.162978968E-4
3.484551109E0,1.832595794E-3,-1.527163113E-4,-3.054326226E-4
3.534551109E0,7.635815418E-4,6.108652451E-4,-4.581489484E-4
3.584551109E0,-1.679879380E-3,7.635815418E-4,-4.581489484E-4
3.634551109E0,-3.054326226E-4,7.635815418E-4,7.635815418E-4
3.684551109E0,-4.581489484E-4,-4.581489484E-4,7.635815418E-4
3.734551109E0,-4.581489484E-4,7.635815418E-4,-4.581489484E-4
3.784551109E0,-1.679879380E-3,-1.679879380E-3,-4.581489484E-4
3.834551109E0,7.635815418E-4,-4.581489484E-4,-4.581489484E-4
3.884551109E0,-4.581489484E-4,-4.581489484E-4,-4.581489484E-4
3.934551109E0,7.635815418E-4,-4.581489484E-4,-4.581489484E-4
3.984551109E0,-2.748893574E-3,4.276056774E-3,-4.581489484E-4
4.034551109E0,1.404990070E-2,-7.941247895E-3,-6.108652451E-4
4.084551109E0,1.175915636E-2,-1.832595794E-3,6.108652451E-4
4.134551109E0,5.650503561E-3,-5.345070735E-3,-4.581489484E-4
4.184551109E0,-4.581489484E-4,-4.581489484E-4,7.635815418E-4
4.234551109E0,-3.970623948E-3,1.985311974E-3,-3.054326226E-4
4.284551109E0,-3.970623948E-3,7.635815418E-4,9.162978968E-4
4.334551109E0,-4.581489484E-4,7.635815418E-4,-4.581489484E-4
4.384551109E0,7.635815418E-4,-1.679879380E-3,-4.581489484E-4
4.434551109E0,1.985311974E-3,1.832595794E-3,-4.581489484E-4
4.484551109E0,7.635815418E-4,-4.581489484E-4,-4.581489484E-4
4.534551109E0,-1.527163084E-3,7.635815418E-4,-4.581489484E-4
4.584551109E0,-1.527163084E-3,7.635815418E-4,7.635815418E-4
4.634551109E0,1.985311974E-3,6.108652451E-4,-4.581489484E-4
4.684551109E0,7.635815418E-4,-6.108652451E-4,-4.581489484E-4
4.734551109E0,1.985311974E-3,-6.108652451E-4,7.635815418E-4
4.784551109E0,-1.527163084E-3,7.635815418E-4,-4.581489484E-4
4.834551109E0,7.635815418E-4,-1.679879380E-3,-4.581489484E-4
4.884551109E0,-5.192354787E-3,3.207042580E-3,-1.527163084E-3
4.934551109E0,-4.123340361E-3,-2.901609987E-3,-1.527163084E-3
4.984551109E0,-4.581489484E-4,6.108652451E-4,-4.581489484E-4
5.034551109E0,-3.054326226E-4,6.108652451E-4,7.635815418E-4
5.084551109E0,3.207042580E-3,-6.108652451E-4,7.635815418E-4
5.134551109E0,7.635815418E-4,-6.108652451E-4,-4.581489484E-4
5.184551109E0,7.635815418E-4,-4.581489484E-4,-4.581489484E-4
5.234551109E0,-1.527163084E-3,7.635815418E-4,-4.581489484E-4
5.284551109E0,-3.054326226E-4,6.108652451E-4,7.635815418E-4
5.334551109E0,-3.054326226E-4,6.108652451E-4,-4.581489484E-4
5.384551109E0,7.635815418E-4,6.108652451E-4,-4.581489484E-4
5.434551109E0,-4.581489484E-4,-4.581489484E-4,-4.581489484E-4
5.484551109E0,9.162978968E-4,6.108652451E-4,7.635815418E-4
5.534551109E0,-1.679879380E-3,-4.581489484E-4,-4.581489484E-4
5.584551109E0,-3.054326226E-4,6.108652451E-4,-4.581489484E-4
5.634551109E0,7.635815418E-4,-1.679879380E-3,-4.581489484E-4
5.684551109E0,-3.054326226E-4,6.108652451E-4,-4.581489484E-4
5.734551109E0,7.635815418E-4,6.108652451E-4,-4.581489484E-4
5.784551109E0,-3.054326226E-4,-4.581489484E-4,7.635815418E-4
5.834551109E0,7.635815418E-4,-1.679879380E-3,-4.581489484E-4
5.884551109E0,-4.581489484E-4,-4.581489484E-4,-4.581489484E-4
5.934551109E0,-4.581489484E-4,-4.581489484E-4,-4.581489484E-4
5.984551109E0,-4.581489484E-4,6.108652451E-4,-4.581489484E-4
6.034551109E0,7.635815418E-4,6.108652451E-4,-4.581489484E-4
6.084551109E0,6.108652451E-4,7.635815418E-4,-4.581489484E-4
6.134551109E0,-6.108652451E-4,-1.527163084E-3,-4.581489484E-4
6.184551109E0,-4.581489484E-4,-4.581489484E-4,7.635815418E-4
6.234551109E0,6.108652451E-4,-1.527163084E-3,-4.581489484E-4
6.284551109E0,-1.679879380E-3,7.635815418E-4,7.635815418E-4
6.334551109E0,6.108652451E-4,-3.970623948E-3,-4.581489484E-4
6.384551109E0,1.832595794E-3,-4.581489484E-4,-4.581489484E-4
6.434551109E0,1.832595794E-3,-1.527163084E-3,-4.581489484E-4
6.484551109E0,6.108652451E-4,-4.581489484E-4,-1.679879380E-3
6.534551109E0,-4.581489484E-4,1.985311974E-3,-4.581489484E-4
6.584551109E0,-6.108652451E-4,-1.527163084E-3,-4.581489484E-4
6.634551109E0,6.108652451E-4,-4.581489484E-4,-4.581489484E-4
6.684551109E0,1.832595794E-3,-4.581489484E-4,7.635815418E-4
6.734551109E0,6.108652451E-4,-4.581489484E-4,-4.581489484E-4
6.784551109E0,-4.581489484E-4,7.635815418E-4,-4.581489484E-4
6.834551109E0,-6.108652451E-4,7.635815418E-4,-1.679879380E-3
6.884551109E0,-1.679879380E-3,-3.054326226E-4,7.635815418E-4
6.934551109E0,-4.581489484E-4,7.635815418E-4,7.635815418E-4
6.984551109E0,7.635815418E-4,7.635815418E-4,7.635815418E-4
7.034551109E0,-6.108652451E-4,-4.581489484E-4,-4.581489484E-4
7.084551109E0,-1.679879380E-3,7.635815418E-4,-4.581489484E-4
7.134551109E0,-6.108652451E-4,-4.581489484E-4,-4.581489484E-4
7.184551109E0,-1.679879380E-3,7.635815418E-4,7.635815418E-4
7.234551109E0,6.108652451E-4,-4.581489484E-4,7.635815418E-4
7.284551109E0,-6.108652451E-4,-4.581489484E-4,-4.581489484E-4
7.334551109E0,-4.581489484E-4,7.635815418E-4,-4.581489484E-4
7.384551109E0,-1.832595794E-3,-1.527163084E-3,-4.581489484E-4
7.434551109E0,7.635815418E-4,7.635815418E-4,-4.581489484E-4
7.484551109E0,7.635815418E-4,7.635815418E-4,7.635815418E-4
7.534551109E0,6.108652451E-4,-1.679879380E-3,-4.581489484E-4
7.584551109E0,-4.581489484E-4,-4.581489484E-4,7.635815418E-4
7.634551109E0,-4.581489484E-4,7.635815418E-4,7.635815418E-4
7.684551109E0,7.635815418E-4,1.985311974E-3,7.635815418E-4
7.734551109E0,-1.679879380E-3,4.428773187E-3,7.635815418E-4
7.784551109E0,-4.581489484E-4,1.985311974E-3,-4.581489484E-4
7.834551109E0,-4.581489484E-4,-4.581489484E-4,7.635815418E-4
7.884551109E0,6.108652451E-4,-4.581489484E-4,-4.581489484E-4
7.934551109E0,-4.581489484E-4,-4.581489484E-4,-4.581489484E-4
7.984551109E0,7.635815418E-4,7.635815418E-4,7.635815418E-4
8.034551109E0,7.635815418E-4,-4.581489484E-4,7.635815418E-4
8.084551109E0,7.635815418E-4,-4.581489484E-4,7.635815418E-4
8.134551109E0,7.635815418E-4,-4.581489484E-4,1.985311974E-3
8.184551109E0,6.108652451E-4,-4.581489484E-4,-4.581489484E-4
8.234551109E0,6.108652451E-4,-4.581489484E-4,-1.679879380E-3
8.284551109E0,6.108652451E-4,-4.581489484E-4,-4.581489484E-4
8.334551109E0,-4.581489484E-4,-4.581489484E-4,-4.581489484E-4
8.384551109E0,-4.581489484E-4,7.635815418E-4,-4.581489484E-4
8.434551109E0,-1.679879380E-3,-3.054326226E-4,-4.581489484E-4
8.484551109E0,-4.581489484E-4,7.635815418E-4,-4.581489484E-4
8.534551109E0,-6.108652451E-4,7.635815418E-4,-1.679879380E-3
8.584551109E0,7.635815418E-4,7.635815418E-4,-4.581489484E-4
8.634551109E0,-4.581489484E-4,-4.581489484E-4,-4.581489484E-4
8.684551109E0,7.635815418E-4,7.635815418E-4,7.635815418E-4
8.734551109E0,-4.581489484E-4,7.635815418E-4,-4.581489484E-4
8.784551109E0,7.635815418E-4,7.635815418E-4,7.635815418E-4
8.834551109E0,6.108652451E-4,-4.581489484E-4,-4.581489484E-4
8.884551109E0,-4.581489484E-4,1.985311974E-3,-4.581489484E-4
8.934551109E0,-4.581489484E-4,7.635815418E-4,7.635815418E-4
8.984551109E0,6.108652451E-4,-4.581489484E-4,-4.581489484E-4
9.034551109E0,7.635815418E-4,7.635815418E-4,7.635815418E-4
9.084551109E0,-6.108652451E-4,-1.527163084E-3,-3.054326226E-4
9.134551109E0,6.108652451E-4,-4.581489484E-4,-3.054326226E-4
9.184551109E0,-4.581489484E-4,-4.581489484E-4,-3.054326226E-4
9.234551109E0,1.985311974E-3,7.635815418E-4,9.162978968E-4
9.284551109E0,-6.108652451E-4,7.635815418E-4,-1.527163084E-3
9.334551109E0,7.635815418E-4,7.635815418E-4,-3.054326226E-4
9.384551109E0,-4.581489484E-4,-4.581489484E-4,-3.054326226E-4
9.434551109E0,-4.581489484E-4,-4.581489484E-4,9.162978968E-4
9.484551109E0,1.832595794E-3,-4.581489484E-4,-3.054326226E-4
9.534551109E0,-1.679879380E-3,-4.581489484E-4,-1.527163113E-4
9.584551109E0,-4.581489484E-4,7.635815418E-4,9.162978968E-4
9.634551109E0,6.108652451E-4,-4.581489484E-4,-3.054326226E-4
9.684551109E0,7.635815418E-4,7.635815418E-4,-3.054326226E-4
9.734551109E0,7.635815418E-4,7.635815418E-4,-3.054326226E-4
9.784551109E0,7.635815418E-4,-4.581489484E-4,2.138028387E-3
9.834551109E0,-4.581489484E-4,-4.581489484E-4,9.162978968E-4
9.884551109E0,-4.581489484E-4,7.635815418E-4,-3.054326226E-4
9.934551109E0,-4.581489484E-4,7.635815418E-4,9.162978968E-4
9.984551109E0,-4.581489484E-4,7.635815418E-4,-3.054326226E-4
1.003455111E1,-4.581489484E-4,7.635815418E-4,9.162978968E-4
1.008455111E1,7.635815418E-4,7.635815418E-4,9.162978968E-4
1.013455111E1,-4.581489484E-4,-4.581489484E-4,9.162978968E-4
1.018455111E1,-4.581489484E-4,1.985311974E-3,-3.054326226E-4
1.023455111E1,-4.581489484E-4,-4.581489484E-4,9.162978968E-4
1.028455111E1,6.108652451E-4,-2.748893574E-3,-3.054326226E-4
1.033455111E1,6.108652451E-4,-1.679879380E-3,-1.527163084E-3
1.038455111E1,-4.581489484E-4,-4.581489484E-4,9.162978968E-4
1.043455111E1,-4.581489484E-4,-4.581489484E-4,-3.054326226E-4
1.048455111E1,-1.679879380E-3,1.985311974E-3,1.069014193E-3
1.053455111E1,-4.581489484E-4,7.635815418E-4,-3.054326226E-4
1.058455111E1,-6.108652451E-4,-4.581489484E-4,-3.054326226E-4
1.063455111E1,-7.635815418E-4,-4.581489484E-4,-1.527163084E-3
1.068455111E1,-6.108652451E-4,7.635815418E-4,-3.054326226E-4
1.073455111E1,4.581489484E-4,-4.581489484E-4,-3.054326226E-4
1.078455111E1,1.679879380E-3,7.635815418E-4,-3.054326226E-4
1.083455111E1,1.679879380E-3,7.635815418E-4,-3.054326226E-4
1.088455111E1,-7.635815418E-4,-1.527163084E-3,-1.527163084E-3
1.093455111E1,6.108652451E-4,7.635815418E-4,9.162978968E-4
1.098455111E1,-6.108652451E-4,7.635815418E-4,-3.054326226E-4
1.103455111E1,-7.635815418E-4,-4.581489484E-4,-3.054326226E-4
1.108455111E1,-7.635815418E-4,-1.527163084E-3,-3.054326226E-4
1.113455111E1,-6.108652451E-4,-4.581489484E-4,-3.054326226E-4
1.118455111E1,-7.635815418E-4,-1.527163084E-3,-3.054326226E-4
1.123455111E1,-6.108652451E-4,-4.581489484E-4,9.162978968E-4
1.128455111E1,-6.108652451E-4,-4.581489484E-4,-3.054326226E-4
1.133455111E1,6.108652451E-4,-4.581489484E-4,9.162978968E-4
1.138455111E1,6.108652451E-4,-4.581489484E-4,9.162978968E-4
1.143455111E1,-6.108652451E-4,7.635815418E-4,-3.054326226E-4
1.148455111E1,-6.108652451E-4,-4.581489484E-4,-3.054326226E-4
1.153455111E1,-6.108652451E-4,1.985311974E-3,9.162978968E-4
1.158455111E1,-6.108652451E-4,7.635815418E-4,-3.054326226E-4
1.163455111E1,-7.635815418E-4,-1.527163084E-3,-3.054326226E-4
1.168455111E1,4.581489484E-4,-4.581489484E-4,-3.054326226E-4
1.173455111E1,4.581489484E-4,-4.581489484E-4,-3.054326226E-4
1.178455111E1,4.581489484E-4,7.635815418E-4,-1.527163084E-3
1.183455111E1,-6.108652451E-4,7.635815418E-4,-3.054326226E-4
1.188455111E1,1.832595794E-3,7.635815418E-4,9.162978968E-4
1.193455111E1,-6.108652451E-4,-4.581489484E-4,-3.054326226E-4
1.198455111E1,6.108652451E-4,7.635815418E-4,-3.054326226E-4
1.203455111E1,6.108652451E-4,7.635815418E-4,-3.054326226E-4
1.208455111E1,-4.581489484E-4,-1.679879380E-3,7.635815418E-4
1.213455111E1,-4.581489484E-4,7.635815418E-4,7.635815418E-4
1.218455111E1,-6.108652451E-4,-1.679879380E-3,-4.581489484E-4
1.223455111E1,-6.108652451E-4,-4.581489484E-4,-1.679879380E-3
1.228455111E1,7.635815418E-4,7.635815418E-4,7.635815418E-4
1.233455111E1,-4.581489484E-4,7.635815418E-4,7.635815418E-4
1.238455111E1,1.985311974E-3,-4.581489484E-4,7.635815418E-4
1.243455111E1,7.635815418E-4,7.635815418E-4,-4.581489484E-4
1.248455111E1,7.635815418E-4,7.635815418E-4,7.635815418E-4
1.253455111E1,6.108652451E-4,-4.581489484E-4,-4.581489484E-4
1.258455111E1,-4.581489484E-4,-1.679879380E-3,7.635815418E-4
1.263455111E1,-4.581489484E-4,-4.581489484E-4,-4.581489484E-4
1.268455111E1,7.635815418E-4,-4.581489484E-4,7.635815418E-4
1.273455111E1,-1.679879380E-3,7.635815418E-4,9.162978968E-4
1.278455111E1,-4.581489484E-4,7.635815418E-4,7.635815418E-4
1.283455111E1,-4.581489484E-4,7.635815418E-4,-4.581489484E-4
1.288455111E1,1.832595794E-3,-4.581489484E-4,-4.581489484E-4
1.293455111E1,6.108652451E-4,-1.679879380E-3,-4.581489484E-4
1.298455111E1,-2.901609987E-3,7.635815418E-4,-1.527163084E-3
1.303455111E1,6.108652451E-4,-2.748893574E-3,-1.679879380E-3
1.308455111E1,-4.581489484E-4,-4.581489484E-4,7.635815418E-4
1.313455111E1,-4.581489484E-4,7.635815418E-4,-4.581489484E-4
1.318455111E1,-4.581489484E-4,-4.581489484E-4,-4.581489484E-4
1.323455111E1,-4.581489484E-4,-4.581489484E-4,7.635815418E-4
1.328455111E1,-4.581489484E-4,-4.581489484E-4,7.635815418E-4
1.333455111E1,-4.581489484E-4,7.635815418E-4,7.635815418E-4
1.338455111E1,6.108652451E-4,-3.970623948E-3,-1.679879380E-3
1.343455111E1,-4.581489484E-4,-4.581489484E-4,-4.581489484E-4
1.348455111E1,6.108652451E-4,-4.581489484E-4,-4.581489484E-4
1.353455111E1,7.635815418E-4,1.985311974E-3,7.635815418E-4
1.358455111E1,-4.581489484E-4,-4.581489484E-4,-4.581489484E-4
1.363455111E1,-1.679879380E-3,-1.527163084E-3,-3.054326226E-4
1.368455111E1,-4.581489484E-4,1.985311974E-3,-4.581489484E-4
1.373455111E1,-4.581489484E-4,7.635815418E-4,-4.581489484E-4
1.378455111E1,-1.679879380E-3,-1.527163084E-3,-3.054326226E-4
1.383455111E1,1.832595794E-3,7.635815418E-4,-4.581489484E-4
1.388455111E1,1.832595794E-3,-4.581489484E-4,-4.581489484E-4
1.393455111E1,7.635815418E-4,-4.581489484E-4,1.985311974E-3
1.398455111E1,-4.581489484E-4,-4.581489484E-4,-4.581489484E-4
1.403455111E1,1.985311974E-3,3.207042580E-3,7.635815418E-4
1.408455111E1,-4.581489484E-4,7.635815418E-4,-4.581489484E-4
1.413455111E1,-4.581489484E-4,1.985311974E-3,7.635815418E-4
1.418455111E1,-2.901609987E-3,1.985311974E-3,9.162978968E-4
1.423455111E1,7.635815418E-4,-4.581489484E-4,7.635815418E-4
1.428455111E1,-6.108652451E-4,-4.581489484E-4,-1.679879380E-3
1.433455111E1,7.635815418E-4,7.635815418E-4,7.635815418E-4
1.438455111E1,6.108652451E-4,-1.679879380E-3,7.635815418E-4
1.443455111E1,1.832595794E-3,-4.581489484E-4,-4.581489484E-4
1.448455111E1,-4.581489484E-4,7.635815418E-4,-4.581489484E-4
1.453455111E1,7.635815418E-4,-4.581489484E-4,7.635815418E-4
1.458455111E1,-4.581489484E-4,-4.581489484E-4,-4.581489484E-4
1.463455111E1,7.635815418E-4,7.635815418E-4,7.635815418E-4
1.468455111E1,-4.581489484E-4,-4.581489484E-4,7.635815418E-4
1.473455111E1,-6.108652451E-4,-1.527163084E-3,-4.581489484E-4
1.478455111E1,6.108652451E-4,-4.581489484E-4,-4.581489484E-4
1.483455111E1,-2.901609987E-3,4.428773187E-3,-3.054326226E-4
1.488455111E1,-4.581489484E-4,7.635815418E-4,-4.581489484E-4
1.493455111E1,7.635815418E-4,1.985311974E-3,-4.581489484E-4
1.498455111E1,-4.581489484E-4,1.985311974E-3,7.635815418E-4
1.503455111E1,6.108652451E-4,-4.581489484E-4,-4.581489484E-4
1.508455111E1,-4.581489484E-4,7.635815418E-4,-4.581489484E-4
1.513455111E1,6.108652451E-4,-4.581489484E-4,-4.581489484E-4
1.518455111E1,-4.581489484E-4,7.635815418E-4,-4.581489484E-4
1.523455111E1,-6.108652451E-4,-1.527163084E-3,-4.581489484E-4
1.528455111E1,-4.581489484E-4,7.635815418E-4,-4.581489484E-4
1.533455111E1,1.832595794E-3,-4.581489484E-4,7.635815418E-4
1.538455111E1,-6.108652451E-4,-4.581489484E-4,-1.679879380E-3
1.543455111E1,6.108652451E-4,-1.679879380E-3,-4.581489484E-4
1.548455111E1,-4.581489484E-4,-4.581489484E-4,-4.581489484E-4
1.553455111E1,6.108652451E-4,7.635815418E-4,-1.679879380E-3
1.558455111E1,1.832595794E-3,-4.581489484E-4,7.635815418E-4
1.563455111E1,7.635815418E-4,7.635815418E-4,7.635815418E-4
1.568455111E1,-4.581489484E-4,-4.581489484E-4,-4.581489484E-4
1.573455111E1,7.635815418E-4,-4.581489484E-4,7.635815418E-4
1.578455111E1,-1.679879380E-3,7.635815418E-4,-3.054326226E-4
1.583455111E1,-2.901609987E-3,7.635815418E-4,-3.054326226E-4
1.588455111E1,-1.679879380E-3,7.635815418E-4,9.162978968E-4
1.593455111E1,-4.581489484E-4,-4.581489484E-4,7.635815418E-4
1.598455111E1,-4.581489484E-4,1.985311974E-3,-4.581489484E-4
1.603455111E1,6.108652451E-4,-1.679879380E-3,-4.581489484E-4
1.608455111E1,6.108652451E-4,-2.748893574E-3,-4.581489484E-4
1.613455111E1,7.635815418E-4,7.635815418E-4,7.635815418E-4
1.618455111E1,-4.581489484E-4,-4.581489484E-4,-4.581489484E-4
1.623455111E1,-1.679879380E-3,1.985311974E-3,-1.527163084E-3
1.628455111E1,-1.679879380E-3,-4.581489484E-4,-3.054326226E-4
1.633455111E1,6.108652451E-4,-4.581489484E-4,-4.581489484E-4
1.638455111E1,-6.108652451E-4,-4.581489484E-4,-1.679879380E-3
1.643455111E1,-7.635815418E-4,-1.527163084E-3,-4.581489484E-4
1.648455111E1,-6.108652451E-4,7.635815418E-4,-4.581489484E-4
1.653455111E1,4.581489484E-4,-4.581489484E-4,-4.581489484E-4
1.658455111E1,-7.635815418E-4,-1.527163084E-3,-4.581489484E-4
1.663455111E1,6.108652451E-4,-4.581489484E-4,7.635815418E-4
1.668455111E1,-6.108652451E-4,7.635815418E-4,-4.581489484E-4
1.673455111E1,-1.985311974E-3,-3.054326226E-4,-1.527163084E-3
1.678455111E1,6.108652451E-4,-4.581489484E-4,7.635815418E-4
1.683455111E1,-1.832595794E-3,7.635815418E-4,7.635815418E-4
1.688455111E1,-7.635815418E-4,-1.527163084E-3,-4.581489484E-4
1.693455111E1,-6.108652451E-4,-4.581489484E-4,7.635815418E-4
1.698455111E1,6.108652451E-4,7.635815418E-4,7.635815418E-4
1.703455111E1,4.581489484E-4,7.635815418E-4,-4.581489484E-4
1.708455111E1,1.679879380E-3,-4.581489484E-4,-4.581489484E-4
1.713455111E1,-1.985311974E-3,-2.748893574E-3,-4.581489484E-4
1.718455111E1,4.581489484E-4,-1.527163084E-3,-4.581489484E-4
1.723455111E1,4.581489484E-4,-4.581489484E-4,-4.581489484E-4
1.728455111E1,4.581489484E-4,-1.679879380E-3,7.635815418E-4
1.733455111E1,1.679879380E-3,7.635815418E-4,-4.581489484E-4
1.738455111E1,6.108652451E-4,7.635815418E-4,7.635815418E-4
1.743455111E1,4.581489484E-4,-4.581489484E-4,-4.581489484E-4
1.748455111E1,-6.108652451E-4,-4.581489484E-4,-4.581489484E-4
1.753455111E1,-7.635815418E-4,-4.581489484E-4,-4.581489484E-4
1.758455111E1,4.581489484E-4,-1.527163084E-3,-4.581489484E-4
1.763455111E1,4.581489484E-4,-1.679879380E-3,-4.581489484E-4
1.768455111E1,1.832595794E-3,7.635815418E-4,1.985311974E-3
1.773455111E1,4.581489484E-4,-4.581489484E-4,-4.581489484E-4
1.778455111E1,1.679879380E-3,-4.581489484E-4,-4.581489484E-4
1.783455111E1,-6.108652451E-4,7.635815418E-4,-4.581489484E-4
1.788455111E1,-6.108652451E-4,7.635815418E-4,-4.581489484E-4
1.793455111E1,-3.054326167E-3,7.635815418E-4,9.162978968E-4
1.798455111E1,-1.832595794E-3,7.635815418E-4,9.162978968E-4
1.803455111E1,1.679879380E-3,-4.581489484E-4,-4.581489484E-4
1.808455111E1,7.635815418E-4,-4.581489484E-4,7.635815418E-4
1.813455111E1,7.635815418E-4,-4.581489484E-4,7.635815418E-4
1.818455111E1,6.108652451E-4,-1.679879380E-3,7.635815418E-4
1.823455111E1,7.635815418E-4,-4.581489484E-4,7.635815418E-4
1.828455111E1,-1.679879380E-3,7.635815418E-4,-1.679879380E-3
1.833455111E1,-1.679879380E-3,7.635815418E-4,-4.581489484E-4
1.838455111E1,-1.679879380E-3,-3.054326226E-4,-4.581489484E-4
1.843455111E1,-6.108652451E-4,-4.581489484E-4,-4.581489484E-4
1.848455111E1,-4.581489484E-4,7.635815418E-4,-4.581489484E-4
1.853455111E1,-1.832595794E-3,-1.527163084E-3,-1.527163084E-3
1.858455111E1,7.635815418E-4,-4.581489484E-4,7.635815418E-4
1.863455111E1,1.832595794E-3,7.635815418E-4,-1.679879380E-3
1.868455111E1,-4.581489484E-4,7.635815418E-4,7.635815418E-4
1.873455111E1,7.635815418E-4,1.985311974E-3,7.635815418E-4
1.878455111E1,1.985311974E-3,7.635815418E-4,7.635815418E-4
1.883455111E1,-4.581489484E-4,-4.581489484E-4,7.635815418E-4
1.888455111E1,-4.581489484E-4,7.635815418E-4,7.635815418E-4
1.893455111E1,-4.581489484E-4,1.985311974E-3,-4.581489484E-4
1.898455111E1,-6.108652451E-4,-1.527163084E-3,-1.679879380E-3
1.903455111E1,-1.679879380E-3,-3.054326226E-4,-4.581489484E-4
1.908455111E1,1.832595794E-3,-4.581489484E-4,-4.581489484E-4
1.913455111E1,3.054326167E-3,-1.679879380E-3,-4.581489484E-4
1.918455111E1,1.832595794E-3,-1.679879380E-3,-1.679879380E-3
1.923455111E1,7.635815418E-4,7.635815418E-4,-4.581489484E-4
1.928455111E1,-1.832595794E-3,-1.527163084E-3,-4.581489484E-4
1.933455111E1,-1.679879380E-3,7.635815418E-4,-4.581489484E-4
1.938455111E1,6.108652451E-4,-4.581489484E-4,-4.581489484E-4
1.943455111E1,-1.679879380E-3,-3.054326226E-4,7.635815418E-4
1.948455111E1,-4.581489484E-4,7.635815418E-4,-4.581489484E-4
1.953455111E1,7.635815418E-4,-4.581489484E-4,7.635815418E-4
1.958455111E1,7.635815418E-4,-4.581489484E-4,7.635815418E-4
1.963455111E1,-4.581489484E-4,-6.108652451E-4,-4.581489484E-4
1.968455111E1,6.108652451E-4,-1.832595794E-3,-1.679879380E-3
1.973455111E1,3.054326167E-3,-6.108652451E-4,-4.581489484E-4
1.978455111E1,-4.581489484E-4,6.108652451E-4,-4.581489484E-4
1.983455111E1,-4.581489484E-4,-6.108652451E-4,7.635815418E-4
1.988455111E1,6.108652451E-4,-6.108652451E-4,-4.581489484E-4
1.993455111E1,-4.581489484E-4,1.832595794E-3,7.635815418E-4
1.998455111E1,7.635815418E-4,1.832595794E-3,-4.581489484E-4
2.003455111E1,-1.679879380E-3,-6.108652451E-4,-3.054326226E-4
2.008455111E1,7.635815418E-4,1.832595794E-3,7.635815418E-4
2.013455111E1,6.108652451E-4,-1.832595794E-3,7.635815418E-4
2.018455111E1,7.635815418E-4,6.108652451E-4,-4.581489484E-4
2.023455111E1,6.108652451E-4,-1.832595794E-3,-1.679879380E-3
2.028455111E1,7.635815418E-4,-6.108652451E-4,7.635815418E-4
2.033455111E1,-4.581489484E-4,6.108652451E-4,-4.581489484E-4
2.038455111E1,1.832595794E-3,6.108652451E-4,-4.581489484E-4
2.043455111E1,6.108652451E-4,6.108652451E-4,-1.679879380E-3
2.048455111E1,-4.581489484E-4,-6.108652451E-4,-4.581489484E-4
2.053455111E1,-1.679879380E-3,-4.581489484E-4,7.635815418E-4
2.058455111E1,1.832595794E-3,-6.108652451E-4,7.635815418E-4
2.063455111E1,-4.581489484E-4,6.108652451E-4,-4.581489484E-4
2.068455111E1,-6.108652451E-4,-1.679879380E-3,-4.581489484E-4
2.073455111E1,-4.581489484E-4,-6.108652451E-4,-4.581489484E-4
2.078455111E1,-6.108652451E-4,-6.108652451E-4,-1.679879380E-3
2.083455111E1,-1.679879380E-3,7.635815418E-4,-3.054326226E-4
2.088455111E1,-4.581489484E-4,1.985311974E-3,-4.581489484E-4
2.093455111E1,-2.901609987E-3,-3.054326226E-4,9.162978968E-4
2.098455111E1,7.635815418E-4,-4.581489484E-4,7.635815418E-4
2.103455111E1,7.635815418E-4,7.635815418E-4,7.635815418E-4
2.108455111E1,-4.581489484E-4,7.635815418E-4,-4.581489484E-4
2.113455111E1,7.635815418E-4,-4.581489484E-4,7.635815418E-4
2.118455111E1,-1.679879380E-3,-3.054326226E-4,-3.054326226E-4
2.123455111E1,7.635815418E-4,7.635815418E-4,-4.581489484E-4
2.128455111E1,-4.581489484E-4,-4.581489484E-4,-4.581489484E-4
2.133455111E1,-1.679879380E-3,7.635815418E-4,9.162978968E-4
2.138455111E1,-4.581489484E-4,-4.581489484E-4,-4.581489484E-4
2.143455111E1,7.635815418E-4,7.635815418E-4,-4.581489484E-4
2.148455111E1,-4.581489484E-4,-4.581489484E-4,-4.581489484E-4
2.153455111E1,-4.581489484E-4,-4.581489484E-4,-4.581489484E-4
2.158455111E1,7.635815418E-4,7.635815418E-4,7.635815418E-4
2.163455111E1,6.108652451E-4,-1.679879380E-3,7.635815418E-4
2.168455111E1,1.832595794E-3,7.635815418E-4,-4.581489484E-4
2.173455111E1,7.635815418E-4,7.635815418E-4,7.635815418E-4
2.178455111E1,1.832595794E-3,-4.581489484E-4,-4.581489484E-4
2.183455111E1,-4.581489484E-4,7.635815418E-4,-4.581489484E-4
2.188455111E1,-4.581489484E-4,7.635815418E-4,-4.581489484E-4
2.193455111E1,-4.581489484E-4,1.985311974E-3,-4.581489484E-4
2.198455111E1,-4.581489484E-4,-4.581489484E-4,7.635815418E-4
2.203455111E1,1.832595794E-3,-2.748893574E-3,-4.581489484E-4
2.208455111E1,6.108652451E-4,-4.581489484E-4,-4.581489484E-4
2.213455111E1,-1.679879380E-3,-3.054326226E-4,7.635815418E-4
2.218455111E1,6.108652451E-4,-1.679879380E-3,-1.679879380E-3
2.223455111E1,7.635815418E-4,7.635815418E-4,-4.581489484E-4
2.228455111E1,7.635815418E-4,-4.581489484E-4,7.635815418E-4
2.233455111E1,-4.581489484E-4,-4.581489484E-4,-4.581489484E-4
2.238455111E1,6.108652451E-4,-1.679879380E-3,7.635815418E-4
2.243455111E1,-4.581489484E-4,7.635815418E-4,7.635815418E-4
2.248455111E1,6.108652451E-4,-1.679879380E-3,-1.679879380E-3
2.253455111E1,-4.581489484E-4,1.985311974E-3,7.635815418E-4
2.258455111E1,-4.581489484E-4,7.635815418E-4,7.635815418E-4
2.263455111E1,7.635815418E-4,7.635815418E-4,-4.581489484E-4
2.268455111E1,-4.581489484E-4,-4.581489484E-4,7.635815418E-4
2.273455111E1,-6.108652451E-4,-4.581489484E-4,-1.679879380E-3
2.278455111E1,-4.581489484E-4,-4.581489484E-4,-4.581489484E-4
2.283455111E1,7.635815418E-4,7.635815418E-4,7.635815418E-4
2.288455111E1,1.832595794E-3,-4.581489484E-4,7.635815418E-4
2.293455111E1,6.108652451E-4,-4.581489484E-4,-4.581489484E-4
2.298455111E1,7.635815418E-4,7.635815418E-4,1.985311974E-3
2.303455111E1,6.108652451E-4,-4.581489484E-4,-4.581489484E-4
2.308455111E1,-1.679879380E-3,7.635815418E-4,-3.054326226E-4
2.313455111E1,-6.108652451E-4,-1.527163084E-3,-1.679879380E-3
2.318455111E1,7.635815418E-4,-4.581489484E-4,7.635815418E-4
2.323455111E1,6.108652451E-4,-4.581489484E-4,-4.581489484E-4
2.328455111E1,7.635815418E-4,7.635815418E-4,-4.581489484E-4
2.333455111E1,-4.581489484E-4,1.985311974E-3,7.635815418E-4
2.338455111E1,6.108652451E-4,-4.581489484E-4,-1.679879380E-3
2.343455111E1,7.635815418E-4,-4.581489484E-4,7.635815418E-4
2.348455111E1,7.635815418E-4,1.985311974E-3,7.635815418E-4
2.353455111E1,6.108652451E-4,-4.581489484E-4,-4.581489484E-4
2.358455111E1,-4.581489484E-4,7.635815418E-4,-4.581489484E-4
2.363455111E1,-4.581489484E-4,-4.581489484E-4,7.635815418E-4
2.368455111E1,7.635815418E-4,-4.581489484E-4,7.635815418E-4
2.373455111E1,6.108652451E-4,-4.581489484E-4,-4.581489484E-4
2.378455111E1,1.832595794E-3,-1.679879380E-3,-4.581489484E-4
2.383455111E1,1.832595794E-3,-4.581489484E-4,-4.581489484E-4
2.388455111E1,7.635815418E-4,7.635815418E-4,-4.581489484E-4
2.393455111E1,7.635815418E-4,7.635815418E-4,7.635815418E-4
2.398455111E1,6.108652451E-4,-4.581489484E-4,-4.581489484E-4
2.403455111E1,-4.581489484E-4,7.635815418E-4,7.635815418E-4
2.408455111E1,6.108652451E-4,7.635815418E-4,-1.679879380E-3
2.413455111E1,7.635815418E-4,1.985311974E-3,7.635815418E-4
2.418455111E1,6.108652451E-4,-4.581489484E-4,-1.679879380E-3
2.423455111E1,-1.679879380E-3,7.635815418E-4,-3.054326226E-4
2.428455111E1,1.832595794E-3,-1.679879380E-3,-4.581489484E-4
2.433455111E1,6.108652451E-4,-4.581489484E-4,-4.581489484E-4
2.438455111E1,1.832595794E-3,7.635815418E-4,-4.581489484E-4
2.443455111E1,6.108652451E-4,-1.679879380E-3,-4.581489484E-4
2.448455111E1,-4.581489484E-4,-4.581489484E-4,-4.581489484E-4
2.453455111E1,-4.581489484E-4,-4.581489484E-4,-4.581489484E-4
2.458455111E1,-1.679879380E-3,7.635815418E-4,-3.054326226E-4
2.463455111E1,-4.581489484E-4,7.635815418E-4,7.635815418E-4
2.468455111E1,-4.581489484E-4,7.635815418E-4,-4.581489484E-4
2.473455111E1,1.832595794E-3,7.635815418E-4,-4.581489484E-4
2.478455111E1,6.108652451E-4,-4.581489484E-4,-4.581489484E-4
2.483455111E1,6.108652451E-4,-4.581489484E-4,-4.581489484E-4
2.488455111E1,-6.108652451E-4,-1.527163084E-3,-1.679879380E-3
2.493455111E1,-4.581489484E-4,-4.581489484E-4,7.635815418E-4
2.498455111E1,1.985311974E-3,1.985311974E-3,7.635815418E-4
2.503455111E1,7.635815418E-4,7.635815418E-4,7.635815418E-4
2.508455111E1,1.985311974E-3,7.635815418E-4,7.635815418E-4
2.513455111E1,-1.832595794E-3,-3.054326226E-4,-1.527163084E-3
2.518455111E1,-1.679879380E-3,7.635815418E-4,9.162978968E-4
2.523455111E1,-4.581489484E-4,-4.581489484E-4,-4.581489484E-4
2.528455111E1,6.108652451E-4,7.635815418E-4,-1.679879380E-3
2.533455111E1,-4.581489484E-4,-4.581489484E-4,7.635815418E-4
2.538455111E1,1.832595794E-3,-1.679879380E-3,-4.581489484E-4
2.543455111E1,6.108652451E-4,-4.581489484E-4,-4.581489484E-4
2.548455111E1,-4.581489484E-4,7.635815418E-4,-4.581489484E-4
2.553455111E1,7.635815418E-4,1.985311974E-3,-4.581489484E-4
2.558455111E1,-4.581489484E-4,7.635815418E-4,9.162978968E-4
2.563455111E1,-4.581489484E-4,7.635815418E-4,-3.054326226E-4
2.568455111E1,-1.679879380E-3,7.635815418E-4,1.069014193E-3
2.573455111E1,-4.581489484E-4,-4.581489484E-4,9.162978968E-4
2.578455111E1,6.108652451E-4,-4.581489484E-4,-3.054326226E-4
2.583455111E1,-1.679879380E-3,7.635815418E-4,-3.054326226E-4
2.588455111E1,1.832595794E-3,-4.581489484E-4,9.162978968E-4
2.593455111E1,-4.581489484E-4,7.635815418E-4,9.162978968E-4
2.598455111E1,-4.581489484E-4,7.635815418E-4,-3.054326226E-4
2.603455111E1,-4.581489484E-4,7.635815418E-4,-3.054326226E-4
2.608455111E1,-6.108652451E-4,-4.581489484E-4,-3.054326226E-4
2.613455111E1,-4.581489484E-4,-4.581489484E-4,-3.054326226E-4
2.618455111E1,-6.108652451E-4,-1.527163084E-3,-3.054326226E-4
2.623455111E1,-1.679879380E-3,-3.054326226E-4,-3.054326226E-4
2.628455111E1,-4.581489484E-4,7.635815418E-4,9.162978968E-4
2.633455111E1,6.108652451E-4,-1.679879380E-3,-3.054326226E-4
2.638455111E1,7.635815418E-4,7.635815418E-4,9.162978968E-4
2.643455111E1,-6.108652451E-4,-1.527163084E-3,-1.527163084E-3
2.648455111E1,6.108652451E-4,-4.581489484E-4,-3.054326226E-4
2.653455111E1,7.635815418E-4,7.635815418E-4,-3.054326226E-4
2.658455111E1,6.108652451E-4,7.635815418E-4,-1.527163084E-3
2.663455111E1,-1.679879380E-3,-3.054326226E-4,-1.527163113E-4
2.668455111E1,-4.581489484E-4,-4.581489484E-4,-3.054326226E-4
2.673455111E1,-4.581489484E-4,7.635815418E-4,9.162978968E-4
2.678455111E1,-6.108652451E-4,7.635815418E-4,-1.527163084E-3
2.683455111E1,-4.581489484E-4,7.635815418E-4,9.162978968E-4
2.688455111E1,-4.581489484E-4,7.635815418E-4,-3.054326226E-4
2.693455111E1,6.108652451E-4,-1.679879380E-3,-1.527163084E-3
2.698455111E1,1.985311974E-3,1.985311974E-3,-3.054326226E-4
2.703455111E1,-6.108652451E-4,-1.527163084E-3,-3.054326226E-4
2.708455111E1,-4.581489484E-4,7.635815418E-4,-3.054326226E-4
2.713455111E1,-4.581489484E-4,-1.527163084E-3,9.162978968E-4
2.718455111E1,-4.581489484E-4,1.985311974E-3,9.162978968E-4
2.723455111E1,-6.108652451E-4,-1.679879380E-3,-4.581489484E-4
2.728455111E1,-1.679879380E-3,6.108652451E-4,-4.581489484E-4
2.733455111E1,6.108652451E-4,-6.108652451E-4,-4.581489484E-4
2.738455111E1,6.108652451E-4,-1.832595794E-3,-4.581489484E-4
2.743455111E1,6.108652451E-4,-6.108652451E-4,-4.581489484E-4
2.748455111E1,7.635815418E-4,-6.108652451E-4,7.635815418E-4
2.753455111E1,7.635815418E-4,6.108652451E-4,7.635815418E-4
2.758455111E1,-4.581489484E-4,6.108652451E-4,-4.581489484E-4
2.763455111E1,6.108652451E-4,-6.108652451E-4,-4.581489484E-4
2.768455111E1,-6.108652451E-4,-6.108652451E-4,-4.581489484E-4
2.773455111E1,7.635815418E-4,6.108652451E-4,-4.581489484E-4
2.778455111E1,-1.679879380E-3,6.108652451E-4,-4.581489484E-4
2.783455111E1,-1.679879380E-3,1.832595794E-3,1.985311974E-3
2.788455111E1,6.108652451E-4,-6.108652451E-4,-4.581489484E-4
2.793455111E1,-4.581489484E-4,6.108652451E-4,-4.581489484E-4
2.798455111E1,-4.581489484E-4,3.054326167E-3,-1.679879380E-3
2.803455111E1,-4.581489484E-4,6.108652451E-4,-4.581489484E-4
2.808455111E1,1.985311974E-3,-6.108652451E-4,1.985311974E-3
2.813455111E1,-1.832595794E-3,-1.679879380E-3,-3.054326226E-4
2.818455111E1,-6.108652451E-4,-1.679879380E-3,-1.679879380E-3
2.823455111E1,-6.108652451E-4,-2.901609987E-3,-4.581489484E-4
2.828455111E1,6.108652451E-4,-6.108652451E-4,-4.581489484E-4
2.833455111E1,-4.581489484E-4,-6.108652451E-4,7.635815418E-4
2.838455111E1,6.108652451E-4,-6.108652451E-4,-4.581489484E-4
2.843455111E1,-4.581489484E-4,6.108652451E-4,-4.581489484E-4
2.848455111E1,-6.108652451E-4,-6.108652451E-4,-4.581489484E-4
2.853455111E1,-6.108652451E-4,-6.108652451E-4,-1.679879380E-3
2.858455111E1,1.985311974E-3,1.832595794E-3,1.985311974E-3
2.863455111E1,7.635815418E-4,6.108652451E-4,-4.581489484E-4
2.868455111E1,6.108652451E-4,-1.679879380E-3,-1.679879380E-3
2.873455111E1,7.635815418E-4,6.108652451E-4,-4.581489484E-4
2.878455111E1,6.108652451E-4,-6.108652451E-4,-4.581489484E-4
2.883455111E1,-4.581489484E-4,1.832595794E-3,-1.679879380E-3
2.888455111E1,1.832595794E-3,6.108652451E-4,-4.581489484E-4
2.893455111E1,-4.581489484E-4,6.108652451E-4,7.635815418E-4
2.898455111E1,7.635815418E-4,-6.108652451E-4,1.985311974E-3
2.903455111E1,-4.581489484E-4,6.108652451E-4,7.635815418E-4
2.908455111E1,1.832595794E-3,-1.832595794E-3,-4.581489484E-4
2.913455111E1,-4.581489484E-4,6.108652451E-4,-4.581489484E-4
2.918455111E1,-4.581489484E-4,-6.108652451E-4,-4.581489484E-4
2.923455111E1,6.108652451E-4,-1.832595794E-3,-4.581489484E-4
2.928455111E1,-1.832595794E-3,-2.901609987E-3,-4.581489484E-4
2.933455111E1,-1.679879380E-3,3.054326167E-3,-4.581489484E-4
2.938455111E1,-2.901609987E-3,-4.581489484E-4,9.162978968E-4
2.943455111E1,6.108652451E-4,-1.679879380E-3,-1.679879380E-3
2.948455111E1,-6.108652451E-4,-4.123340361E-3,-1.679879380E-3
2.953455111E1,7.635815418E-4,6.108652451E-4,-4.581489484E-4
2.958455111E1,-4.581489484E-4,6.108652451E-4,-4.581489484E-4
2.963455111E1,7.635815418E-4,6.108652451E-4,7.635815418E-4
2.968455111E1,7.635815418E-4,-6.108652451E-4,7.635815418E-4
2.973455111E1,6.108652451E-4,-4.581489484E-4,-3.054326226E-4
2.978455111E1,1.985311974E-3,7.635815418E-4,9.162978968E-4
2.983455111E1,-4.581489484E-4,7.635815418E-4,-3.054326226E-4
2.988455111E1,6.108652451E-4,-2.748893574E-3,-3.054326226E-4
2.993455111E1,-1.832595794E-3,-3.054326226E-4,-1.527163084E-3
2.998455111E1,-1.679879380E-3,7.635815418E-4,-3.054326226E-4
3.003455111E1,7.635815418E-4,7.635815418E-4,9.162978968E-4
3.008455111E1,7.635815418E-4,-4.581489484E-4,9.162978968E-4
3.013455111E1,3.054326167E-3,-1.679879380E-3,-3.054326226E-4
3.018455111E1,1.832595794E-3,7.635815418E-4,-3.054326226E-4
3.023455111E1,-1.679879380E-3,7.635815418E-4,9.162978968E-4
3.028455111E1,-1.679879380E-3,1.985311974E-3,-3.054326226E-4
3.033455111E1,-4.581489484E-4,7.635815418E-4,-3.054326226E-4
3.038455111E1,-6.108652451E-4,-2.748893574E-3,-3.054326226E-4
3.043455111E1,7.635815418E-4,7.635815418E-4,-3.054326226E-4
3.048455111E1,1.832595794E-3,-1.679879380E-3,-3.054326226E-4
3.053455111E1,6.108652451E-4,7.635815418E-4,-3.054326226E-4
3.058455111E1,7.635815418E-4,-4.581489484E-4,9.162978968E-4
3.063455111E1,6.108652451E-4,7.635815418E-4,-3.054326226E-4
3.068455111E1,1.832595794E-3,-4.581489484E-4,-3.054326226E-4
3.073455111E1,1.832595794E-3,-4.581489484E-4,-3.054326226E-4
3.078455111E1,-6.108652451E-4,-4.581489484E-4,-3.054326226E-4
3.083455111E1,7.635815418E-4,7.635815418E-4,-3.054326226E-4
3.088455111E1,-4.581489484E-4,7.635815418E-4,9.162978968E-4
3.093455111E1,-6.108652451E-4,-4.581489484E-4,-3.054326226E-4
3.098455111E1,-4.581489484E-4,7.635815418E-4,-3.054326226E-4
3.103455111E1,1.832595794E-3,-1.679879380E-3,-1.527163084E-3
3.108455111E1,-4.581489484E-4,7.635815418E-4,-3.054326226E-4
3.113455111E1,1.985311974E-3,7.635815418E-4,9.162978968E-4
3.118455111E1,6.108652451E-4,-4.581489484E-4,-1.527163084E-3
3.123455111E1,-1.985311974E-3,-1.527163084E-3,-3.054326226E-4
3.128455111E1,-6.108652451E-4,7.635815418E-4,-3.054326226E-4
3.133455111E1,-6.108652451E-4,7.635815418E-4,-3.054326226E-4
3.138455111E1,1.679879380E-3,-4.581489484E-4,9.162978968E-4
3.143455111E1,6.108652451E-4,7.635815418E-4,9.162978968E-4
3.148455111E1,-1.832595794E-3,-3.054326226E-4,9.162978968E-4
3.153455111E1,-1.832595794E-3,1.985311974E-3,-3.054326226E-4
3.158455111E1,6.108652451E-4,1.985311974E-3,9.162978968E-4
3.163455111E1,-6.108652451E-4,1.985311974E-3,9.162978968E-4
3.168455111E1,6.108652451E-4,7.635815418E-4,9.162978968E-4
3.173455111E1,1.679879380E-3,7.635815418E-4,-3.054326226E-4
3.178455111E1,6.108652451E-4,-4.581489484E-4,9.162978968E-4
3.183455111E1,6.108652451E-4,-4.581489484E-4,9.162978968E-4
3.188455111E1,4.581489484E-4,7.635815418E-4,-3.054326226E-4
3.193455111E1,-7.635815418E-4,-3.054326226E-4,-3.054326226E-4
3.198455111E1,-1.832595794E-3,9.162978968E-4,-3.054326226E-4
3.203455111E1,1.679879380E-3,-1.679879380E-3,9.162978968E-4
3.208455111E1,4.581489484E-4,7.635815418E-4,-3.054326226E-4
3.213455111E1,6.108652451E-4,-4.581489484E-4,9.162978968E-4
3.218455111E1,-7.635815418E-4,-1.527163084E-3,-3.054326226E-4
3.223455111E1,6.108652451E-4,-4.581489484E-4,9.162978968E-4
3.228455111E1,4.581489484E-4,7.635815418E-4,-3.054326226E-4
3.233455111E1,-1.832595794E-3,7.635815418E-4,9.162978968E-4
3.238455111E1,-6.108652451E-4,7.635815418E-4,-3.054326226E-4
3.243455111E1,-1.832595794E-3,1.985311974E-3,-3.054326226E-4
3.248455111E1,4.581489484E-4,-4.581489484E-4,-3.054326226E-4
3.253455111E1,-6.108652451E-4,7.635815418E-4,-3.054326226E-4
3.258455111E1,4.581489484E-4,-4.581489484E-4,9.162978968E-4
3.263455111E1,-7.635815418E-4,-1.527163084E-3,9.162978968E-4
3.268455111E1,4.581489484E-4,-4.581489484E-4,-3.054326226E-4
3.273455111E1,6.108652451E-4,-4.581489484E-4,7.635815418E-4
3.278455111E1,7.635815418E-4,1.985311974E-3,-4.581489484E-4
3.283455111E1,7.635815418E-4,1.985311974E-3,7.635815418E-4
3.288455111E1,-1.679879380E-3,1.985311974E-3,-4.581489484E-4
3.293455111E1,6.108652451E-4,-4.581489484E-4,-1.679879380E-3
3.298455111E1,-1.679879380E-3,9.162978968E-4,-4.581489484E-4
3.303455111E1,-2.901609987E-3,2.138028387E-3,-4.581489484E-4
3.308455111E1,-4.581489484E-4,7.635815418E-4,-4.581489484E-4
3.313455111E1,-4.581489484E-4,7.635815418E-4,-4.581489484E-4
3.318455111E1,6.108652451E-4,-3.970623948E-3,-1.679879380E-3
3.323455111E1,1.832595794E-3,7.635815418E-4,7.635815418E-4
3.328455111E1,1.832595794E-3,-4.581489484E-4,7.635815418E-4
3.333455111E1,-1.679879380E-3,1.985311974E-3,7.635815418E-4
3.338455111E1,-1.679879380E-3,7.635815418E-4,7.635815418E-4
3.343455111E1,6.108652451E-4,-4.581489484E-4,-4.581489484E-4
3.348455111E1,-6.108652451E-4,-3.054326226E-4,-4.581489484E-4
3.353455111E1,6.108652451E-4,-4.581489484E-4,-4.581489484E-4
3.358455111E1,-4.581489484E-4,1.985311974E-3,7.635815418E-4
3.363455111E1,6.108652451E-4,-1.527163084E-3,7.635815418E-4
3.368455111E1,6.108652451E-4,-4.581489484E-4,7.635815418E-4
3.373455111E1,-4.581489484E-4,7.635815418E-4,7.635815418E-4
3.378455111E1,-1.679879380E-3,7.635815418E-4,7.635815418E-4
3.383455111E1,-6.108652451E-4,-1.527163084E-3,7.635815418E-4
3.388455111E1,6.108652451E-4,-4.581489484E-4,7.635815418E-4
3.393455111E1,-1.679879380E-3,1.985311974E-3,7.635815418E-4
3.398455111E1,-1.679879380E-3,9.162978968E-4,7.635815418E-4
3.403455111E1,6.108652451E-4,7.635815418E-4,-4.581489484E-4
3.408455111E1,-4.581489484E-4,7.635815418E-4,7.635815418E-4
3.413455111E1,-2.901609987E-3,9.162978968E-4,-1.527163084E-3
3.418455111E1,-6.108652451E-4,-3.054326226E-4,-4.581489484E-4
3.423455111E1,6.108652451E-4,-1.679879380E-3,-4.581489484E-4
3.428455111E1,6.108652451E-4,-6.108652451E-4,-4.581489484E-4
3.433455111E1,1.832595794E-3,-6.108652451E-4,7.635815418E-4
3.438455111E1,-2.901609987E-3,7.635815418E-4,-3.054326226E-4
3.443455111E1,1.832595794E-3,-1.832595794E-3,-4.581489484E-4
3.448455111E1,6.108652451E-4,-2.901609987E-3,-4.581489484E-4
3.453455111E1,6.108652451E-4,-6.108652451E-4,-4.581489484E-4
3.458455111E1,-1.679879380E-3,7.635815418E-4,7.635815418E-4
3.463455111E1,6.108652451E-4,6.108652451E-4,-4.581489484E-4
3.468455111E1,1.832595794E-3,-6.108652451E-4,-4.581489484E-4
3.473455111E1,6.108652451E-4,-1.679879380E-3,-4.581489484E-4
3.478455111E1,6.108652451E-4,-6.108652451E-4,7.635815418E-4
3.483455111E1,-6.108652451E-4,-4.581489484E-4,-4.581489484E-4
3.488455111E1,-4.581489484E-4,6.108652451E-4,7.635815418E-4
3.493455111E1,-4.581489484E-4,6.108652451E-4,-4.581489484E-4
3.498455111E1,-4.581489484E-4,1.832595794E-3,-4.581489484E-4
3.503455111E1,-6.108652451E-4,6.108652451E-4,-4.581489484E-4
3.508455111E1,-6.108652451E-4,6.108652451E-4,-4.581489484E-4
3.513455111E1,1.832595794E-3,-6.108652451E-4,7.635815418E-4
3.518455111E1,-4.581489484E-4,6.108652451E-4,-4.581489484E-4
3.523455111E1,6.108652451E-4,6.108652451E-4,-4.581489484E-4
3.528455111E1,-6.108652451E-4,-1.679879380E-3,-4.581489484E-4
3.533455111E1,6.108652451E-4,-6.108652451E-4,-4.581489484E-4
3.538455111E1,-4.581489484E-4,6.108652451E-4,-4.581489484E-4
3.543455111E1,7.635815418E-4,6.108652451E-4,7.635815418E-4
3.548455111E1,-4.581489484E-4,-4.581489484E-4,7.635815418E-4
3.553455111E1,-1.679879380E-3,7.635815418E-4,7.635815418E-4
3.558455111E1,6.108652451E-4,-1.679879380E-3,-4.581489484E-4
3.563455111E1,-6.108652451E-4,6.108652451E-4,-4.581489484E-4
3.568455111E1,-6.108652451E-4,-4.581489484E-4,-4.581489484E-4
3.573455111E1,-6.108652451E-4,-4.581489484E-4,-4.581489484E-4
3.578455111E1,6.108652451E-4,-6.108652451E-4,7.635815418E-4
3.583455111E1,1.832595794E-3,6.108652451E-4,7.635815418E-4
3.588455111E1,1.832595794E-3,-6.108652451E-4,-4.581489484E-4
3.593455111E1,-6.108652451E-4,-4.581489484E-4,-4.581489484E-4
3.598455111E1,-1.832595794E-3,-1.679879380E-3,-4.581489484E-4
3.603455111E1,6.108652451E-4,6.108652451E-4,-4.581489484E-4
3.608455111E1,-1.679879380E-3,7.635815418E-4,-4.581489484E-4
3.613455111E1,6.108652451E-4,-6.108652451E-4,7.635815418E-4
3.618455111E1,-1.679879380E-3,3.054326167E-3,7.635815418E-4
3.623455111E1,1.832595794E-3,6.108652451E-4,7.635815418E-4
3.628455111E1,1.832595794E-3,-1.679879380E-3,-4.581489484E-4
3.633455111E1,-1.679879380E-3,1.832595794E-3,-4.581489484E-4
3.638455111E1,-6.108652451E-4,6.108652451E-4,-4.581489484E-4
3.643455111E1,-1.679879380E-3,7.635815418E-4,7.635815418E-4
3.648455111E1,-1.679879380E-3,7.635815418E-4,-4.581489484E-4
3.653455111E1,-6.108652451E-4,-4.581489484E-4,-1.679879380E-3
3.658455111E1,6.108652451E-4,-4.581489484E-4,-4.581489484E-4
3.663455111E1,6.108652451E-4,-6.108652451E-4,7.635815418E-4
3.668455111E1,7.635815418E-4,1.832595794E-3,7.635815418E-4
3.673455111E1,1.832595794E-3,-1.832595794E-3,-4.581489484E-4
3.678455111E1,-1.832595794E-3,-1.679879380E-3,-1.679879380E-3
3.683455111E1,-6.108652451E-4,-4.581489484E-4,-4.581489484E-4
3.688455111E1,1.832595794E-3,-1.679879380E-3,-1.679879380E-3
3.693455111E1,6.108652451E-4,-6.108652451E-4,7.635815418E-4
3.698455111E1,-1.832595794E-3,-4.581489484E-4,-4.581489484E-4
3.703455111E1,7.635815418E-4,6.108652451E-4,7.635815418E-4
3.708455111E1,-4.581489484E-4,1.832595794E-3,-4.581489484E-4
3.713455111E1,-1.832595794E-3,-1.679879380E-3,-4.581489484E-4
3.718455111E1,-1.832595794E-3,-4.581489484E-4,-1.679879380E-3
3.723455111E1,6.108652451E-4,-3.054326226E-4,7.635815418E-4
3.728455111E1,1.832595794E-3,-1.527163084E-3,-4.581489484E-4
3.733455111E1,3.054326167E-3,7.635815418E-4,7.635815418E-4
3.738455111E1,-6.108652451E-4,-3.054326226E-4,-4.581489484E-4
3.743455111E1,6.108652451E-4,-3.054326226E-4,-4.581489484E-4
3.748455111E1,-1.679879380E-3,3.207042580E-3,-4.581489484E-4
3.753455111E1,1.832595794E-3,7.635815418E-4,7.635815418E-4
3.758455111E1,1.832595794E-3,-1.527163084E-3,7.635815418E-4
3.763455111E1,6.108652451E-4,-1.527163084E-3,7.635815418E-4
3.768455111E1,-6.108652451E-4,9.162978968E-4,-4.581489484E-4
3.773455111E1,-1.679879380E-3,1.985311974E-3,-4.581489484E-4
3.778455111E1,1.832595794E-3,-2.748893574E-3,7.635815418E-4
3.783455111E1,6.108652451E-4,7.635815418E-4,-4.581489484E-4
3.788455111E1,-6.108652451E-4,9.162978968E-4,-1.679879380E-3
3.793455111E1,6.108652451E-4,-3.054326226E-4,7.635815418E-4
3.798455111E1,7.635815418E-4,7.635815418E-4,7.635815418E-4
3.803455111E1,6.108652451E-4,-2.748893574E-3,7.635815418E-4
3.808455111E1,6.108652451E-4,-1.527163084E-3,-1.679879380E-3
3.813455111E1,-6.108652451E-4,9.162978968E-4,-4.581489484E-4
3.818455111E1,-4.581489484E-4,9.162978968E-4,7.635815418E-4
3.823455111E1,-1.679879380E-3,-3.054326226E-4,7.635815418E-4
3.828455111E1,6.108652451E-4,-3.054326226E-4,-4.581489484E-4
3.833455111E1,-6.108652451E-4,9.162978968E-4,-4.581489484E-4
3.838455111E1,-4.581489484E-4,1.985311974E-3,-4.581489484E-4
3.843455111E1,1.832595794E-3,-1.527163084E-3,7.635815418E-4
3.848455111E1,-4.581489484E-4,9.162978968E-4,7.635815418E-4
3.853455111E1,6.108652451E-4,-3.054326226E-4,-4.581489484E-4
3.858455111E1,-2.901609987E-3,9.162978968E-4,-4.581489484E-4
3.863455111E1,-6.108652451E-4,-3.054326226E-4,-4.581489484E-4
3.868455111E1,-1.679879380E-3,1.985311974E-3,7.635815418E-4
3.873455111E1,1.832595794E-3,-5.192354787E-3,7.635815418E-4
3.878455111E1,3.054326167E-3,-1.527163084E-3,-4.581489484E-4
3.883455111E1,7.635815418E-4,7.635815418E-4,7.635815418E-4
3.888455111E1,-6.108652451E-4,-1.527163084E-3,-4.581489484E-4
3.893455111E1,1.832595794E-3,-1.527163084E-3,-4.581489484E-4
3.898455111E1,1.832595794E-3,-1.527163084E-3,-4.581489484E-4
3.903455111E1,7.635815418E-4,7.635815418E-4,1.985311974E-3
3.908455111E1,1.832595794E-3,-4.581489484E-4,-4.581489484E-4
3.913455111E1,-6.108652451E-4,9.162978968E-4,-4.581489484E-4
3.918455111E1,-1.832595794E-3,-3.054326226E-4,-4.581489484E-4
3.923455111E1,-1.832595794E-3,9.162978968E-4,-1.679879380E-3
3.928455111E1,-1.679879380E-3,9.162978968E-4,7.635815418E-4
3.933455111E1,-1.679879380E-3,9.162978968E-4,7.635815418E-4
3.938455111E1,-4.581489484E-4,9.162978968E-4,7.635815418E-4
3.943455111E1,1.832595794E-3,7.635815418E-4,7.635815418E-4
3.948455111E1,6.108652451E-4,-3.054326226E-4,-4.581489484E-4
3.953455111E1,1.832595794E-3,7.635815418E-4,-4.581489484E-4
3.958455111E1,-1.679879380E-3,1.985311974E-3,-4.581489484E-4
3.963455111E1,6.108652451E-4,1.985311974E-3,-4.581489484E-4
3.968455111E1,-1.832595794E-3,9.162978968E-4,-4.581489484E-4
3.973455111E1,-4.581489484E-4,9.162978968E-4,7.635815418E-4
3.978455111E1,-1.832595794E-3,-3.054326226E-4,-4.581489484E-4
3.983455111E1,-6.108652451E-4,9.162978968E-4,-4.581489484E-4
3.988455111E1,-1.679879380E-3,1.985311974E-3,7.635815418E-4
3.993455111E1,-4.581489484E-4,1.985311974E-3,7.635815418E-4
3.998455111E1,6.108652451E-4,-3.054326226E-4,-4.581489484E-4
4.003455111E1,-6.108652451E-4,-3.054326226E-4,7.635815418E-4
4.008455111E1,6.108652451E-4,-2.748893574E-3,-1.679879380E-3
4.013455111E1,6.108652451E-4,-3.054326226E-4,-4.581489484E-4
4.018455111E1,6.108652451E-4,-1.527163084E-3,-4.581489484E-4
4.023455111E1,6.108652451E-4,-1.527163084E-3,7.635815418E-4
4.028455111E1,6.108652451E-4,-1.527163084E-3,-4.581489484E-4
4.033455111E1,6.108652451E-4,-3.054326226E-4,-4.581489484E-4
4.038455111E1,-6.108652451E-4,-3.054326226E-4,7.635815418E-4
4.043455111E1,1.832595794E-3,-1.527163084E-3,7.635815418E-4
4.048455111E1,1.832595794E-3,-3.054326226E-4,7.635815418E-4
4.053455111E1,-1.679879380E-3,3.207042580E-3,-4.581489484E-4
4.058455111E1,6.108652451E-4,-3.054326226E-4,7.635815418E-4
4.063455111E1,-6.108652451E-4,-3.054326226E-4,-4.581489484E-4
4.068455111E1,-6.108652451E-4,-3.054326226E-4,-1.679879380E-3
4.073455111E1,-4.581489484E-4,1.985311974E-3,-4.581489484E-4
4.078455111E1,-6.108652451E-4,9.162978968E-4,-4.581489484E-4
4.083455111E1,-4.581489484E-4,3.207042580E-3,7.635815418E-4
4.088455111E1,6.108652451E-4,-3.054326226E-4,7.635815418E-4
4.093455111E1,-4.581489484E-4,3.207042580E-3,-4.581489484E-4
4.098455111E1,-6.108652451E-4,-3.054326226E-4,-4.581489484E-4
4.103455111E1,1.832595794E-3,-3.054326226E-4,7.635815418E-4
4.108455111E1,1.832595794E-3,-4.581489484E-4,7.635815418E-4
4.113455111E1,-6.108652451E-4,-2.748893574E-3,-4.581489484E-4
4.118455111E1,1.832595794E-3,-1.527163084E-3,-1.679879380E-3
4.123455111E1,-6.108652451E-4,-3.054326226E-4,7.635815418E-4
4.128455111E1,-6.108652451E-4,-1.527163084E-3,7.635815418E-4
4.133455111E1,6.108652451E-4,-1.527163084E-3,-4.581489484E-4
4.138455111E1,-6.108652451E-4,-3.054326226E-4,-1.679879380E-3
4.143455111E1,6.108652451E-4,-3.054326226E-4,7.635815418E-4
4.148455111E1,1.832595794E-3,-3.054326226E-4,-4.581489484E-4
4.153455111E1,6.108652451E-4,-3.054326226E-4,-4.581489484E-4
4.158455111E1,3.054326167E-3,-1.527163084E-3,7.635815418E-4
4.163455111E1,-1.832595794E-3,9.162978968E-4,-4.581489484E-4
4.168455111E1,-2.901609987E-3,-3.054326226E-4,7.635815418E-4
4.173455111E1,-4.581489484E-4,7.635815418E-4,9.162978968E-4
4.178455111E1,6.108652451E-4,7.635815418E-4,-3.054326226E-4
4.183455111E1,-6.108652451E-4,7.635815418E-4,-3.054326226E-4
4.188455111E1,-4.581489484E-4,7.635815418E-4,9.162978968E-4
4.193455111E1,-1.679879380E-3,1.985311974E-3,9.162978968E-4
4.198455111E1,-6.108652451E-4,-2.901609987E-3,-1.527163084E-3
4.203455111E1,3.054326167E-3,-6.108652451E-4,9.162978968E-4
4.208455111E1,-4.581489484E-4,3.054326167E-3,9.162978968E-4
4.213455111E1,6.108652451E-4,-1.679879380E-3,-3.054326226E-4
4.218455111E1,-1.679879380E-3,1.985311974E-3,9.162978968E-4
4.223455111E1,-6.108652451E-4,-4.581489484E-4,-1.527163084E-3
4.228455111E1,6.108652451E-4,-1.679879380E-3,-3.054326226E-4
4.233455111E1,6.108652451E-4,-4.581489484E-4,2.138028387E-3
4.238455111E1,-2.901609987E-3,1.985311974E-3,9.162978968E-4
4.243455111E1,6.108652451E-4,7.635815418E-4,-1.527163084E-3
4.248455111E1,3.054326167E-3,6.108652451E-4,-3.054326226E-4
4.253455111E1,6.108652451E-4,6.108652451E-4,9.162978968E-4
4.258455111E1,6.108652451E-4,1.832595794E-3,-3.054326226E-4
4.263455111E1,-1.679879380E-3,1.985311974E-3,-3.054326226E-4
4.268455111E1,6.108652451E-4,-1.679879380E-3,9.162978968E-4
4.273455111E1,1.832595794E-3,-1.679879380E-3,9.162978968E-4
4.278455111E1,-6.108652451E-4,-4.581489484E-4,9.162978968E-4
4.283455111E1,6.108652451E-4,9.162978968E-4,9.162978968E-4
4.288455111E1,1.832595794E-3,7.635815418E-4,-3.054326226E-4
4.293455111E1,-6.108652451E-4,-1.527163084E-3,2.138028387E-3
4.298455111E1,6.108652451E-4,-3.054326226E-4,-3.054326226E-4
4.303455111E1,1.832595794E-3,-3.054326226E-4,9.162978968E-4
4.308455111E1,1.832595794E-3,-1.527163084E-3,-1.527163084E-3
4.313455111E1,-1.679879380E-3,9.162978968E-4,9.162978968E-4
4.318455111E1,1.832595794E-3,7.635815418E-4,-3.054326226E-4
4.323455111E1,-1.832595794E-3,9.162978968E-4,-3.054326226E-4
4.328455111E1,-1.679879380E-3,9.162978968E-4,9.162978968E-4
4.333455111E1,1.832595794E-3,-1.527163084E-3,9.162978968E-4
4.338455111E1,-6.108652451E-4,9.162978968E-4,-3.054326226E-4
4.343455111E1,-1.832595794E-3,-3.054326226E-4,9.162978968E-4
4.348455111E1,6.108652451E-4,-2.748893574E-3,9.162978968E-4
4.353455111E1,-2.901609987E-3,2.138028387E-3,-3.054326226E-4
4.358455111E1,-6.108652451E-4,9.162978968E-4,-3.054326226E-4
4.363455111E1,6.108652451E-4,-3.054326226E-4,9.162978968E-4
4.368455111E1,-6.108652451E-4,-1.527163084E-3,-3.054326226E-4
4.373455111E1,1.832595794E-3,-2.748893574E-3,-3.054326226E-4
4.378455111E1,-6.108652451E-4,-1.527163084E-3,9.162978968E-4
4.383455111E1,-4.581489484E-4,1.985311974E-3,9.162978968E-4
4.388455111E1,-6.108652451E-4,-1.527163084E-3,-3.054326226E-4
4.393455111E1,6.108652451E-4,7.635815418E-4,9.162978968E-4
4.398455111E1,-2.901609987E-3,2.138028387E-3,-3.054326226E-4
4.403455111E1,1.832595794E-3,-3.054326226E-4,-3.054326226E-4
4.408455111E1,6.108652451E-4,-3.054326226E-4,-1.527163084E-3
4.413455111E1,-1.679879380E-3,-3.054326226E-4,2.138028387E-3
4.418455111E1,6.108652451E-4,9.162978968E-4,9.162978968E-4
4.423455111E1,-1.679879380E-3,2.138028387E-3,-3.054326226E-4
4.428455111E1,-6.108652451E-4,-3.054326226E-4,-3.054326226E-4
4.433455111E1,1.832595794E-3,-3.054326226E-4,9.162978968E-4
4.438455111E1,-4.581489484E-4,4.428773187E-3,9.162978968E-4
4.443455111E1,-6.108652451E-4,-2.748893574E-3,9.162978968E-4
4.448455111E1,3.054326167E-3,-1.527163084E-3,2.138028387E-3
4.453455111E1,-6.108652451E-4,-4.581489484E-4,-4.581489484E-4
4.458455111E1,6.108652451E-4,-4.581489484E-4,-4.581489484E-4
4.463455111E1,3.054326167E-3,-4.581489484E-4,-4.581489484E-4
4.468455111E1,-1.832595794E-3,7.635815418E-4,-4.581489484E-4
4.473455111E1,-4.581489484E-4,1.985311974E-3,7.635815418E-4
4.478455111E1,6.108652451E-4,-1.679879380E-3,-4.581489484E-4
4.483455111E1,1.832595794E-3,-2.901609987E-3,7.635815418E-4
4.488455111E1,1.832595794E-3,-1.679879380E-3,-1.679879380E-3
4.493455111E1,-4.581489484E-4,7.635815418E-4,7.635815418E-4
4.498455111E1,-4.581489484E-4,1.985311974E-3,7.635815418E-4
4.503455111E1,6.108652451E-4,-4.581489484E-4,-4.581489484E-4
4.508455111E1,1.832595794E-3,-1.679879380E-3,7.635815418E-4
4.513455111E1,1.832595794E-3,-4.581489484E-4,-4.581489484E-4
4.518455111E1,-1.832595794E-3,-4.581489484E-4,7.635815418E-4
4.523455111E1,3.054326167E-3,-1.679879380E-3,-4.581489484E-4
4.528455111E1,1.832595794E-3,-4.581489484E-4,-4.581489484E-4
4.533455111E1,-1.832595794E-3,7.635815418E-4,-4.581489484E-4
4.538455111E1,6.108652451E-4,-4.581489484E-4,7.635815418E-4
4.543455111E1,-1.832595794E-3,7.635815418E-4,-4.581489484E-4
4.548455111E1,6.108652451E-4,-2.901609987E-3,-1.679879380E-3
4.553455111E1,6.108652451E-4,-4.581489484E-4,-4.581489484E-4
4.558455111E1,6.108652451E-4,-4.581489484E-4,-4.581489484E-4
4.563455111E1,6.108652451E-4,7.635815418E-4,-4.581489484E-4
4.568455111E1,-1.679879380E-3,1.985311974E-3,7.635815418E-4
4.573455111E1,3.054326167E-3,-1.679879380E-3,7.635815418E-4
4.578455111E1,1.832595794E-3,-2.901609987E-3,-4.581489484E-4
4.583455111E1,1.832595794E-3,7.635815418E-4,-4.581489484E-4
4.588455111E1,6.108652451E-4,-4.581489484E-4,-4.581489484E-4
4.593455111E1,6.108652451E-4,-4.581489484E-4,-1.679879380E-3
4.598455111E1,-1.832595794E-3,7.635815418E-4,-1.679879380E-3
4.603455111E1,6.108652451E-4,1.985311974E-3,7.635815418E-4
4.608455111E1,6.108652451E-4,-3.970623948E-3,-4.581489484E-4
4.613455111E1,-6.108652451E-4,9.162978968E-4,-4.581489484E-4
4.618455111E1,1.832595794E-3,-1.527163084E-3,-4.581489484E-4
4.623455111E1,-6.108652451E-4,9.162978968E-4,-4.581489484E-4
4.628455111E1,3.054326167E-3,-2.748893574E-3,-4.581489484E-4
4.633455111E1,-6.108652451E-4,9.162978968E-4,7.635815418E-4
4.638455111E1,1.832595794E-3,-3.054326226E-4,7.635815418E-4
4.643455111E1,1.832595794E-3,-1.527163084E-3,7.635815418E-4
4.648455111E1,-2.901609987E-3,2.138028387E-3,-4.581489484E-4
4.653455111E1,-2.901609987E-3,3.359758761E-3,-4.581489484E-4
4.658455111E1,-6.108652451E-4,-1.527163084E-3,-4.581489484E-4
4.663455111E1,6.108652451E-4,-3.054326226E-4,-4.581489484E-4
4.668455111E1,6.108652451E-4,9.162978968E-4,-1.679879380E-3
4.673455111E1,7.635815418E-4,3.207042580E-3,7.635815418E-4
4.678455111E1,1.832595794E-3,-3.054326226E-4,-4.581489484E-4
4.683455111E1,6.108652451E-4,-3.054326226E-4,7.635815418E-4
4.688455111E1,-6.108652451E-4,9.162978968E-4,-4.581489484E-4
4.693455111E1,6.108652451E-4,-1.527163084E-3,7.635815418E-4
4.698455111E1,-1.679879380E-3,2.138028387E-3,7.635815418E-4
4.703455111E1,-3.054326167E-3,9.162978968E-4,-4.581489484E-4
4.708455111E1,6.108652451E-4,9.162978968E-4,7.635815418E-4
4.713455111E1,-1.832595794E-3,-1.527163084E-3,-4.581489484E-4
4.718455111E1,6.108652451E-4,-1.527163084E-3,7.635815418E-4
4.723455111E1,1.832595794E-3,-2.748893574E-3,7.635815418E-4
4.728455111E1,6.108652451E-4,-3.054326226E-4,-4.581489484E-4
4.733455111E1,1.832595794E-3,-1.527163084E-3,-4.581489484E-4
4.738455111E1,6.108652451E-4,-3.054326226E-4,1.985311974E-3
4.743455111E1,6.108652451E-4,-1.527163084E-3,-4.581489484E-4
4.748455111E1,1.832595794E-3,-2.748893574E-3,1.985311974E-3
4.753455111E1,-1.832595794E-3,-3.054326226E-4,7.635815418E-4
4.758455111E1,-3.054326167E-3,3.207042580E-3,-1.679879380E-3
4.763455111E1,-6.108652451E-4,7.635815418E-4,-4.581489484E-4
4.768455111E1,3.054326167E-3,-2.901609987E-3,-4.581489484E-4
4.773455111E1,-6.108652451E-4,7.635815418E-4,7.635815418E-4
4.778455111E1,-6.108652451E-4,-1.679879380E-3,-4.581489484E-4
4.783455111E1,1.832595794E-3,-1.679879380E-3,-4.581489484E-4
4.788455111E1,-6.108652451E-4,7.635815418E-4,7.635815418E-4
4.793455111E1,-6.108652451E-4,-4.581489484E-4,-4.581489484E-4
4.798455111E1,-6.108652451E-4,7.635815418E-4,-4.581489484E-4
4.803455111E1,-6.108652451E-4,-1.679879380E-3,-1.679879380E-3
4.808455111E1,6.108652451E-4,-1.679879380E-3,7.635815418E-4
4.813455111E1,-1.832595794E-3,1.985311974E-3,-4.581489484E-4
4.818455111E1,6.108652451E-4,-1.679879380E-3,-4.581489484E-4
4.823455111E1,-1.832595794E-3,1.985311974E-3,-4.581489484E-4
4.828455111E1,6.108652451E-4,-1.679879380E-3,7.635815418E-4
4.833455111E1,1.832595794E-3,-1.679879380E-3,-4.581489484E-4
4.838455111E1,1.832595794E-3,-4.581489484E-4,7.635815418E-4
4.843455111E1,6.108652451E-4,-4.581489484E-4,-4.581489484E-4
4.848455111E1,1.832595794E-3,-2.901609987E-3,-4.581489484E-4
4.853455111E1,6.108652451E-4,-2.901609987E-3,-4.581489484E-4
4.858455111E1,6.108652451E-4,-4.581489484E-4,-4.581489484E-4
4.863455111E1,-6.108652451E-4,-4.581489484E-4,7.635815418E-4
4.868455111E1,-1.679879380E-3,7.635815418E-4,7.635815418E-4
4.873455111E1,7.635815418E-4,7.635815418E-4,1.985311974E-3
4.878455111E1,3.054326167E-3,-1.679879380E-3,-4.581489484E-4
4.883455111E1,6.108652451E-4,-4.581489484E-4,-4.581489484E-4
4.888455111E1,6.108652451E-4,-4.581489484E-4,-4.581489484E-4
4.893455111E1,1.832595794E-3,-4.581489484E-4,7.635815418E-4
4.898455111E1,1.832595794E-3,-1.679879380E-3,-4.581489484E-4
4.903455111E1,-6.108652451E-4,7.635815418E-4,7.635815418E-4
4.908455111E1,6.108652451E-4,-1.527163084E-3,-4.581489484E-4
4.913455111E1,6.108652451E-4,9.162978968E-4,-4.581489484E-4
4.918455111E1,6.108652451E-4,9.162978968E-4,-4.581489484E-4
4.923455111E1,-6.108652451E-4,9.162978968E-4,-1.679879380E-3
4.928455111E1,-1.679879380E-3,3.359758761E-3,-4.581489484E-4
4.933455111E1,-1.832595794E-3,-3.054326226E-4,-4.581489484E-4
4.938455111E1,-4.581489484E-4,9.162978968E-4,1.985311974E-3
4.943455111E1,-6.108652451E-4,9.162978968E-4,-4.581489484E-4
4.948455111E1,6.108652451E-4,-1.527163084E-3,-4.581489484E-4
4.953455111E1,-6.108652451E-4,-3.054326226E-4,-4.581489484E-4
4.958455111E1,6.108652451E-4,-1.527163084E-3,-1.679879380E-3
4.963455111E1,-1.832595794E-3,2.138028387E-3,-4.581489484E-4
4.968455111E1,-4.581489484E-4,2.138028387E-3,7.635815418E-4
4.973455111E1,6.108652451E-4,9.162978968E-4,7.635815418E-4
4.978455111E1,3.054326167E-3,-3.054326226E-4,7.635815418E-4
4.983455111E1,6.108652451E-4,9.162978968E-4,7.635815418E-4
4.988455111E1,6.108652451E-4,9.162978968E-4,7.635815418E-4
4.993455111E1,-6.108652451E-4,-3.054326226E-4,7.635815418E-4
4.998455111E1,6.108652451E-4,9.162978968E-4,7.635815418E-4
5.003455111E1,6.108652451E-4,-1.527163084E-3,-4.581489484E-4
5.008455111E1,6.108652451E-4,-2.748893574E-3,-4.581489484E-4
5.013455111E1,-6.108652451E-4,-3.054326226E-4,-4.581489484E-4
5.018455111E1,-6.108652451E-4,-3.054326226E-4,7.635815418E-4
5.023455111E1,-6.108652451E-4,-3.054326226E-4,7.635815418E-4
5.028455111E1,-1.832595794E-3,-3.054326226E-4,-4.581489484E-4
5.033455111E1,-1.679879380E-3,2.138028387E-3,1.985311974E-3
5.038455111E1,1.832595794E-3,2.138028387E-3,7.635815418E-4
5.043455111E1,3.054326167E-3,-3.054326226E-4,-4.581489484E-4
5.048455111E1,6.108652451E-4,-3.054326226E-4,-4.581489484E-4
5.053455111E1,-6.108652451E-4,-3.054326226E-4,7.635815418E-4
5.058455111E1,6.108652451E-4,9.162978968E-4,-4.581489484E-4
5.063455111E1,6.108652451E-4,-3.054326226E-4,-4.581489484E-4
5.068455111E1,6.108652451E-4,9.162978968E-4,7.635815418E-4
5.073455111E1,1.985311974E-3,7.635815418E-4,7.635815418E-4
5.078455111E1,7.635815418E-4,-1.679879380E-3,7.635815418E-4
5.083455111E1,7.635815418E-4,7.635815418E-4,-4.581489484E-4
5.088455111E1,-4.581489484E-4,-4.581489484E-4,7.635815418E-4
5.093455111E1,3.207042580E-3,-1.679879380E-3,-4.581489484E-4
5.098455111E1,1.985311974E-3,-4.581489484E-4,7.635815418E-4
5.103455111E1,-4.581489484E-4,1.985311974E-3,-4.581489484E-4
5.108455111E1,1.985311974E-3,-4.581489484E-4,-4.581489484E-4
5.113455111E1,1.985311974E-3,-1.679879380E-3,-4.581489484E-4
5.118455111E1,-1.679879380E-3,7.635815418E-4,-4.581489484E-4
5.123455111E1,7.635815418E-4,-2.901609987E-3,-4.581489484E-4
5.128455111E1,-1.679879380E-3,1.985311974E-3,-4.581489484E-4
5.133455111E1,7.635815418E-4,-1.679879380E-3,7.635815418E-4
5.138455111E1,1.985311974E-3,-2.901609987E-3,-4.581489484E-4
5.143455111E1,7.635815418E-4,-2.901609987E-3,-4.581489484E-4
5.148455111E1,-4.581489484E-4,7.635815418E-4,-4.581489484E-4
5.153455111E1,-1.679879380E-3,7.635815418E-4,7.635815418E-4
5.158455111E1,7.635815418E-4,-4.581489484E-4,-4.581489484E-4
5.163455111E1,-4.581489484E-4,7.635815418E-4,7.635815418E-4
5.168455111E1,-3.054326226E-4,1.985311974E-3,1.985311974E-3
5.173455111E1,-4.581489484E-4,7.635815418E-4,-4.581489484E-4
5.178455111E1,7.635815418E-4,-4.581489484E-4,-4.581489484E-4
5.183455111E1,1.985311974E-3,-2.901609987E-3,-4.581489484E-4
5.188455111E1,7.635815418E-4,7.635815418E-4,7.635815418E-4
5.193455111E1,-4.581489484E-4,-4.581489484E-4,-1.679879380E-3
5.198455111E1,7.635815418E-4,7.635815418E-4,7.635815418E-4
5.203455111E1,-1.527163084E-3,1.985311974E-3,7.635815418E-4
5.208455111E1,-4.581489484E-4,-4.581489484E-4,-4.581489484E-4
5.213455111E1,-3.054326226E-4,1.985311974E-3,7.635815418E-4
5.218455111E1,-1.679879380E-3,-4.581489484E-4,7.635815418E-4
5.223455111E1,7.635815418E-4,-4.581489484E-4,-4.581489484E-4
5.228455111E1,-4.581489484E-4,-2.901609987E-3,-4.581489484E-4
5.233455111E1,-4.581489484E-4,7.635815418E-4,-4.581489484E-4
5.238455111E1,-1.679879380E-3,1.985311974E-3,-1.679879380E-3
5.243455111E1,6.108652451E-4,-4.581489484E-4,7.635815418E-4
5.248455111E1,1.832595794E-3,-4.581489484E-4,7.635815418E-4
5.253455111E1,-6.108652451E-4,-4.581489484E-4,-4.581489484E-4
5.258455111E1,1.832595794E-3,-4.581489484E-4,1.985311974E-3
5.263455111E1,-6.108652451E-4,-1.679879380E-3,7.635815418E-4
5.268455111E1,1.832595794E-3,-1.679879380E-3,7.635815418E-4
5.273455111E1,6.108652451E-4,-4.581489484E-4,7.635815418E-4
5.278455111E1,-4.581489484E-4,1.985311974E-3,7.635815418E-4
5.283455111E1,6.108652451E-4,-4.581489484E-4,-4.581489484E-4
5.288455111E1,6.108652451E-4,-1.679879380E-3,-4.581489484E-4
5.293455111E1,6.108652451E-4,-1.679879380E-3,7.635815418E-4
5.298455111E1,6.108652451E-4,-1.679879380E-3,7.635815418E-4
5.303455111E1,-6.108652451E-4,7.635815418E-4,-4.581489484E-4
5.308455111E1,-6.108652451E-4,1.985311974E-3,-4.581489484E-4
5.313455111E1,-6.108652451E-4,-1.679879380E-3,-4.581489484E-4
5.318455111E1,1.832595794E-3,7.635815418E-4,-4.581489484E-4
5.323455111E1,-6.108652451E-4,-2.901609987E-3,-4.581489484E-4
5.328455111E1,-6.108652451E-4,-1.679879380E-3,-4.581489484E-4
5.333455111E1,-1.832595794E-3,7.635815418E-4,-4.581489484E-4
5.338455111E1,-6.108652451E-4,-4.581489484E-4,7.635815418E-4
5.343455111E1,-1.832595794E-3,-4.581489484E-4,-4.581489484E-4
5.348455111E1,-6.108652451E-4,7.635815418E-4,7.635815418E-4
5.353455111E1,1.832595794E-3,-1.679879380E-3,7.635815418E-4
5.358455111E1,6.108652451E-4,-4.581489484E-4,-4.581489484E-4
5.363455111E1,6.108652451E-4,-4.581489484E-4,-4.581489484E-4
5.368455111E1,6.108652451E-4,7.635815418E-4,7.635815418E-4
5.373455111E1,-6.108652451E-4,7.635815418E-4,7.635815418E-4
5.378455111E1,-6.108652451E-4,-4.581489484E-4,7.635815418E-4
5.383455111E1,-3.054326167E-3,7.635815418E-4,-4.581489484E-4
5.388455111E1,6.108652451E-4,1.985311974E-3,-4.581489484E-4
5.393455111E1,6.108652451E-4,7.635815418E-4,7.635815418E-4
5.398455111E1,-6.108652451E-4,-4.581489484E-4,-4.581489484E-4
5.403455111E1,1.832595794E-3,7.635815418E-4,-1.679879380E-3
5.408455111E1,6.108652451E-4,9.162978968E-4,7.635815418E-4
5.413455111E1,1.832595794E-3,-1.527163084E-3,-4.581489484E-4
5.418455111E1,-6.108652451E-4,-1.527163084E-3,7.635815418E-4
5.423455111E1,-6.108652451E-4,9.162978968E-4,7.635815418E-4
5.428455111E1,-1.832595794E-3,-2.748893574E-3,-4.581489484E-4
5.433455111E1,-1.832595794E-3,9.162978968E-4,7.635815418E-4
5.438455111E1,1.832595794E-3,-1.527163084E-3,7.635815418E-4
5.443455111E1,1.832595794E-3,9.162978968E-4,-4.581489484E-4
5.448455111E1,-6.108652451E-4,-3.054326226E-4,-4.581489484E-4
5.453455111E1,6.108652451E-4,-3.054326226E-4,-4.581489484E-4
5.458455111E1,3.054326167E-3,-1.527163084E-3,7.635815418E-4
5.463455111E1,6.108652451E-4,-1.527163084E-3,-4.581489484E-4
5.468455111E1,-6.108652451E-4,-3.054326226E-4,-1.679879380E-3
5.473455111E1,-1.679879380E-3,9.162978968E-4,7.635815418E-4
5.478455111E1,-6.108652451E-4,-3.054326226E-4,7.635815418E-4
5.483455111E1,-6.108652451E-4,9.162978968E-4,-4.581489484E-4
5.488455111E1,-6.108652451E-4,-1.527163084E-3,-1.679879380E-3
5.493455111E1,-6.108652451E-4,-3.054326226E-4,-4.581489484E-4
5.498455111E1,-6.108652451E-4,9.162978968E-4,-4.581489484E-4
5.503455111E1,6.108652451E-4,-3.054326226E-4,-1.679879380E-3
5.508455111E1,6.108652451E-4,9.162978968E-4,-4.581489484E-4
5.513455111E1,6.108652451E-4,-3.054326226E-4,-4.581489484E-4
5.518455111E1,-6.108652451E-4,-3.054326226E-4,-1.679879380E-3
5.523455111E1,-4.581489484E-4,2.138028387E-3,7.635815418E-4
5.528455111E1,-6.108652451E-4,-1.527163084E-3,7.635815418E-4
5.533455111E1,-6.108652451E-4,9.162978968E-4,7.635815418E-4
5.538455111E1,-6.108652451E-4,9.162978968E-4,-1.679879380E-3
5.543455111E1,6.108652451E-4,-3.054326226E-4,7.635815418E-4
5.548455111E1,6.108652451E-4,2.138028387E-3,7.635815418E-4
5.553455111E1,-6.108652451E-4,-2.748893574E-3,7.635815418E-4
5.558455111E1,-6.108652451E-4,-3.054326226E-4,7.635815418E-4
5.563455111E1,-6.108652451E-4,-4.581489484E-4,7.635815418E-4
5.568455111E1,-4.581489484E-4,3.207042580E-3,7.635815418E-4
5.573455111E1,6.108652451E-4,-4.581489484E-4,-4.581489484E-4
5.578455111E1,-6.108652451E-4,-2.901609987E-3,-4.581489484E-4
5.583455111E1,6.108652451E-4,7.635815418E-4,7.635815418E-4
5.588455111E1,6.108652451E-4,1.985311974E-3,7.635815418E-4
5.593455111E1,-4.581489484E-4,5.497787148E-3,1.985311974E-3
5.598455111E1,-6.108652451E-4,-4.581489484E-4,7.635815418E-4
5.603455111E1,1.832595794E-3,7.635815418E-4,-4.581489484E-4
5.608455111E1,6.108652451E-4,-4.581489484E-4,7.635815418E-4
5.613455111E1,-6.108652451E-4,-4.581489484E-4,7.635815418E-4
5.618455111E1,6.108652451E-4,-4.581489484E-4,7.635815418E-4
5.623455111E1,1.832595794E-3,-4.581489484E-4,-4.581489484E-4
5.628455111E1,-1.832595794E-3,-1.679879380E-3,-4.581489484E-4
5.633455111E1,-6.108652451E-4,-4.581489484E-4,7.635815418E-4
5.638455111E1,6.108652451E-4,-1.679879380E-3,-4.581489484E-4
5.643455111E1,-1.832595794E-3,-4.581489484E-4,1.985311974E-3
5.648455111E1,-1.832595794E-3,-1.679879380E-3,-4.581489484E-4
5.653455111E1,-1.832595794E-3,7.635815418E-4,7.635815418E-4
5.658455111E1,6.108652451E-4,1.985311974E-3,-4.581489484E-4
5.663455111E1,-1.679879380E-3,3.207042580E-3,7.635815418E-4
5.668455111E1,-6.108652451E-4,7.635815418E-4,7.635815418E-4
5.673455111E1,6.108652451E-4,-1.679879380E-3,-6.108652451E-4
5.678455111E1,6.108652451E-4,7.635815418E-4,6.108652451E-4
5.683455111E1,-6.108652451E-4,-2.901609987E-3,6.108652451E-4
5.688455111E1,-1.832595794E-3,-4.581489484E-4,-6.108652451E-4
5.693455111E1,-6.108652451E-4,1.985311974E-3,6.108652451E-4
5.698455111E1,-6.108652451E-4,1.985311974E-3,6.108652451E-4
5.703455111E1,6.108652451E-4,7.635815418E-4,6.108652451E-4
5.708455111E1,6.108652451E-4,-2.901609987E-3,-6.108652451E-4
5.713455111E1,6.108652451E-4,-4.581489484E-4,-6.108652451E-4
5.718455111E1,1.832595794E-3,7.635815418E-4,6.108652451E-4
5.723455111E1,-6.108652451E-4,7.635815418E-4,6.108652451E-4
5.728455111E1,-4.581489484E-4,3.207042580E-3,6.108652451E-4
5.733455111E1,-6.108652451E-4,7.635815418E-4,-6.108652451E-4
5.738455111E1,6.108652451E-4,-4.581489484E-4,-6.108652451E-4
5.743455111E1,6.108652451E-4,-2.901609987E-3,6.108652451E-4
5.748455111E1,6.108652451E-4,-2.901609987E-3,-6.108652451E-4
5.753455111E1,6.108652451E-4,-1.679879380E-3,-6.108652451E-4
5.758455111E1,-6.108652451E-4,-4.123340361E-3,-6.108652451E-4
5.763455111E1,6.108652451E-4,1.985311974E-3,6.108652451E-4
5.768455111E1,6.108652451E-4,-2.901609987E-3,-6.108652451E-4
5.773455111E1,-6.108652451E-4,1.985311974E-3,6.108652451E-4
5.778455111E1,6.108652451E-4,7.635815418E-4,6.108652451E-4
5.783455111E1,-6.108652451E-4,1.985311974E-3,-6.108652451E-4
5.788455111E1,-6.108652451E-4,-1.679879380E-3,-6.108652451E-4
5.793455111E1,6.108652451E-4,7.635815418E-4,-6.108652451E-4
5.798455111E1,-6.108652451E-4,-4.581489484E-4,6.108652451E-4
5.803455111E1,6.108652451E-4,-2.901609987E-3,-6.108652451E-4
5.808455111E1,6.108652451E-4,-4.581489484E-4,-6.108652451E-4
5.813455111E1,6.108652451E-4,1.985311974E-3,-6.108652451E-4
5.818455111E1,6.108652451E-4,-1.679879380E-3,6.108652451E-4
5.823455111E1,6.108652451E-4,-4.581489484E-4,-6.108652451E-4
5.828455111E1,-1.832595794E-3,-4.581489484E-4,6.108652451E-4
5.833455111E1,-6.108652451E-4,-4.123340361E-3,6.108652451E-4
5.838455111E1,-6.108652451E-4,-1.679879380E-3,-6.108652451E-4
5.843455111E1,1.832595794E-3,7.635815418E-4,6.108652451E-4
5.848455111E1,6.108652451E-4,-4.581489484E-4,6.108652451E-4
5.853455111E1,6.108652451E-4,-3.054326226E-4,6.108652451E-4
5.858455111E1,-6.108652451E-4,-3.054326226E-4,6.108652451E-4
5.863455111E1,6.108652451E-4,-1.527163084E-3,6.108652451E-4
5.868455111E1,-6.108652451E-4,-2.748893574E-3,6.108652451E-4
5.873455111E1,6.108652451E-4,2.138028387E-3,6.108652451E-4
5.878455111E1,-6.108652451E-4,-1.527163084E-3,-6.108652451E-4
5.883455111E1,-6.108652451E-4,2.138028387E-3,6.108652451E-4
5.888455111E1,-1.832595794E-3,2.138028387E-3,6.108652451E-4
5.893455111E1,-6.108652451E-4,-3.054326226E-4,-6.108652451E-4
5.898455111E1,-1.832595794E-3,-3.054326226E-4,-6.108652451E-4
5.903455111E1,-6.108652451E-4,-3.054326226E-4,6.108652451E-4
5.908455111E1,-6.108652451E-4,2.138028387E-3,-6.108652451E-4
5.913455111E1,1.832595794E-3,-3.054326226E-4,-6.108652451E-4
5.918455111E1,6.108652451E-4,-3.054326226E-4,6.108652451E-4
5.923455111E1,6.108652451E-4,-3.054326226E-4,6.108652451E-4
5.928455111E1,6.108652451E-4,9.162978968E-4,6.108652451E-4
5.933455111E1,-6.108652451E-4,2.138028387E-3,6.108652451E-4
5.938455111E1,-6.108652451E-4,2.138028387E-3,-6.108652451E-4
5.943455111E1,-6.108652451E-4,-1.527163084E-3,6.108652451E-4
5.948455111E1,-1.679879380E-3,9.162978968E-4,1.832595794E-3
5.953455111E1,-6.108652451E-4,-1.527163084E-3,6.108652451E-4
5.958455111E1,-6.108652451E-4,-3.054326226E-4,-6.108652451E-4
5.963455111E1,1.832595794E-3,9.162978968E-4,6.108652451E-4
5.968455111E1,6.108652451E-4,-3.054326226E-4,-6.108652451E-4
5.973455111E1,6.108652451E-4,-2.748893574E-3,-6.108652451E-4
5.978455111E1,-6.108652451E-4,9.162978968E-4,6.108652451E-4
5.983455111E1,6.108652451E-4,2.138028387E-3,6.108652451E-4
5.988455111E1,-6.108652451E-4,2.138028387E-3,-6.108652451E-4
5.993455111E1,6.108652451E-4,-3.054326226E-4,-6.108652451E-4
5.998455111E1,-6.108652451E-4,-3.054326226E-4,6.108652451E-4
6.003455111E1,-6.108652451E-4,2.138028387E-3,-6.108652451E-4
6.008455111E1,-6.108652451E-4,-3.054326226E-4,-1.832595794E-3
6.013455111E1,-6.108652451E-4,-2.748893574E-3,-6.108652451E-4
6.018455111E1,1.832595794E-3,3.207042580E-3,-6.108652451E-4
6.023455111E1,6.108652451E-4,-3.054326226E-4,6.108652451E-4
6.028455111E1,6.108652451E-4,2.138028387E-3,-6.108652451E-4
6.033455111E1,6.108652451E-4,-2.748893574E-3,-1.832595794E-3
6.038455111E1,6.108652451E-4,9.162978968E-4,6.108652451E-4
6.043455111E1,-6.108652451E-4,-3.054326226E-4,-6.108652451E-4
6.048455111E1,-6.108652451E-4,-3.054326226E-4,6.108652451E-4
6.053455111E1,-6.108652451E-4,-3.054326226E-4,6.108652451E-4
6.058455111E1,-6.108652451E-4,2.138028387E-3,-6.108652451E-4
6.063455111E1,-6.108652451E-4,-2.748893574E-3,-6.108652451E-4
6.068455111E1,1.832595794E-3,-3.054326226E-4,-6.108652451E-4
6.073455111E1,6.108652451E-4,9.162978968E-4,-6.108652451E-4
6.078455111E1,-6.108652451E-4,-1.527163084E-3,6.108652451E-4
6.083455111E1,-6.108652451E-4,-1.527163084E-3,-6.108652451E-4
6.088455111E1,-1.832595794E-3,9.162978968E-4,-6.108652451E-4
6.093455111E1,-6.108652451E-4,9.162978968E-4,6.108652451E-4
6.098455111E1,-6.108652451E-4,-1.527163084E-3,-6.108652451E-4
6.103455111E1,-6.108652451E-4,-3.054326226E-4,6.108652451E-4
6.108455111E1,-6.108652451E-4,-1.527163084E-3,-6.108652451E-4
6.113455111E1,6.108652451E-4,-3.054326226E-4,6.108652451E-4
6.118455111E1,-6.108652451E-4,2.138028387E-3,-6.108652451E-4
6.123455111E1,-6.108652451E-4,2.138028387E-3,-6.108652451E-4
6.128455111E1,6.108652451E-4,-1.527163084E-3,-6.108652451E-4
6.133455111E1,1.832595794E-3,-3.054326226E-4,6.108652451E-4
6.138455111E1,1.832595794E-3,-1.527163084E-3,-6.108652451E-4
6.143455111E1,6.108652451E-4,-2.748893574E-3,-1.832595794E-3
6.148455111E1,6.108652451E-4,-3.054326226E-4,1.832595794E-3
6.153455111E1,1.832595794E-3,9.162978968E-4,6.108652451E-4
6.158455111E1,-1.832595794E-3,9.162978968E-4,6.108652451E-4
6.163455111E1,6.108652451E-4,-1.527163084E-3,-1.832595794E-3
6.168455111E1,1.832595794E-3,-1.527163084E-3,-6.108652451E-4
6.173455111E1,-6.108652451E-4,2.138028387E-3,6.108652451E-4
6.178455111E1,6.108652451E-4,-3.054326226E-4,6.108652451E-4
6.183455111E1,-4.581489484E-4,2.138028387E-3,1.832595794E-3
6.188455111E1,6.108652451E-4,-3.054326226E-4,6.108652451E-4
6.193455111E1,-1.679879380E-3,2.138028387E-3,6.108652451E-4
6.198455111E1,-6.108652451E-4,9.162978968E-4,-6.108652451E-4
6.203455111E1,-6.108652451E-4,9.162978968E-4,-6.108652451E-4
6.208455111E1,-6.108652451E-4,-3.054326226E-4,6.108652451E-4
6.213455111E1,-6.108652451E-4,9.162978968E-4,6.108652451E-4
6.218455111E1,-3.054326167E-3,9.162978968E-4,-6.108652451E-4
6.223455111E1,6.108652451E-4,-1.527163084E-3,-4.581489484E-4
6.228455111E1,6.108652451E-4,-1.527163084E-3,-4.581489484E-4
6.233455111E1,6.108652451E-4,-3.054326226E-4,-4.581489484E-4
6.238455111E1,6.108652451E-4,9.162978968E-4,7.635815418E-4
6.243455111E1,6.108652451E-4,-1.527163084E-3,-4.581489484E-4
6.248455111E1,-6.108652451E-4,9.162978968E-4,-4.581489484E-4
6.253455111E1,-6.108652451E-4,-3.054326226E-4,-4.581489484E-4
6.258455111E1,-1.832595794E-3,-3.054326226E-4,-4.581489484E-4
6.263455111E1,-1.832595794E-3,9.162978968E-4,7.635815418E-4
6.268455111E1,-6.108652451E-4,2.138028387E-3,-4.581489484E-4
6.273455111E1,6.108652451E-4,9.162978968E-4,7.635815418E-4
6.278455111E1,-6.108652451E-4,9.162978968E-4,7.635815418E-4
6.283455111E1,-6.108652451E-4,-3.054326226E-4,7.635815418E-4
6.288455111E1,6.108652451E-4,-2.748893574E-3,-4.581489484E-4
6.293455111E1,6.108652451E-4,-1.527163084E-3,-1.679879380E-3
6.298455111E1,-6.108652451E-4,-2.748893574E-3,-4.581489484E-4
6.303455111E1,6.108652451E-4,-1.527163084E-3,-4.581489484E-4
6.308455111E1,-6.108652451E-4,-3.970623948E-3,7.635815418E-4
6.313455111E1,-6.108652451E-4,9.162978968E-4,-4.581489484E-4
6.318455111E1,1.832595794E-3,-3.054326226E-4,7.635815418E-4
6.323455111E1,1.832595794E-3,9.162978968E-4,7.635815418E-4
6.328455111E1,-1.832595794E-3,9.162978968E-4,7.635815418E-4
6.333455111E1,6.108652451E-4,9.162978968E-4,7.635815418E-4
6.338455111E1,-6.108652451E-4,2.138028387E-3,-4.581489484E-4
6.343455111E1,6.108652451E-4,-1.527163084E-3,7.635815418E-4
6.348455111E1,6.108652451E-4,-1.527163084E-3,-4.581489484E-4
6.353455111E1,-6.108652451E-4,2.138028387E-3,7.635815418E-4
6.358455111E1,-6.108652451E-4,-3.054326226E-4,7.635815418E-4
6.363455111E1,-4.581489484E-4,2.138028387E-3,1.985311974E-3
6.368455111E1,-6.108652451E-4,9.162978968E-4,-4.581489484E-4
6.373455111E1,-6.108652451E-4,-4.581489484E-4,-4.581489484E-4
6.378455111E1,1.832595794E-3,-4.123340361E-3,-4.581489484E-4
6.383455111E1,6.108652451E-4,7.635815418E-4,-4.581489484E-4
6.388455111E1,-6.108652451E-4,-4.581489484E-4,-4.581489484E-4
6.393455111E1,6.108652451E-4,-4.581489484E-4,7.635815418E-4
6.398455111E1,6.108652451E-4,7.635815418E-4,-4.581489484E-4
6.403455111E1,-6.108652451E-4,7.635815418E-4,-4.581489484E-4
6.408455111E1,-1.832595794E-3,1.985311974E-3,-4.581489484E-4
6.413455111E1,-1.832595794E-3,7.635815418E-4,7.635815418E-4
6.418455111E1,-6.108652451E-4,7.635815418E-4,-4.581489484E-4
6.423455111E1,-4.581489484E-4,1.985311974E-3,7.635815418E-4
6.428455111E1,-6.108652451E-4,-2.901609987E-3,-1.679879380E-3
6.433455111E1,6.108652451E-4,-2.901609987E-3,7.635815418E-4
6.438455111E1,6.108652451E-4,-4.581489484E-4,-4.581489484E-4
6.443455111E1,-6.108652451E-4,-1.679879380E-3,-4.581489484E-4
6.448455111E1,6.108652451E-4,-1.679879380E-3,-4.581489484E-4
6.453455111E1,-6.108652451E-4,-1.679879380E-3,7.635815418E-4
6.458455111E1,-6.108652451E-4,-4.581489484E-4,-4.581489484E-4
6.463455111E1,6.108652451E-4,-4.581489484E-4,-4.581489484E-4
6.468455111E1,6.108652451E-4,7.635815418E-4,-4.581489484E-4
6.473455111E1,6.108652451E-4,-4.581489484E-4,-4.581489484E-4
6.478455111E1,-6.108652451E-4,7.635815418E-4,7.635815418E-4
6.483455111E1,-6.108652451E-4,1.985311974E-3,-4.581489484E-4
6.488455111E1,1.832595794E-3,-1.679879380E-3,7.635815418E-4
6.493455111E1,-4.581489484E-4,3.207042580E-3,7.635815418E-4
6.498455111E1,6.108652451E-4,3.054326167E-3,-4.581489484E-4
6.503455111E1,-6.108652451E-4,1.985311974E-3,7.635815418E-4
6.508455111E1,-6.108652451E-4,3.207042580E-3,-4.581489484E-4
6.513455111E1,-1.832595794E-3,-4.581489484E-4,-4.581489484E-4
6.518455111E1,6.108652451E-4,-1.679879380E-3,-4.581489484E-4
6.523455111E1,-6.108652451E-4,3.359758761E-3,-4.581489484E-4
6.528455111E1,6.108652451E-4,-3.054326226E-4,7.635815418E-4
6.533455111E1,6.108652451E-4,9.162978968E-4,7.635815418E-4
6.538455111E1,1.832595794E-3,-3.054326226E-4,-4.581489484E-4
6.543455111E1,6.108652451E-4,9.162978968E-4,-4.581489484E-4
6.548455111E1,6.108652451E-4,-1.527163084E-3,7.635815418E-4
6.553455111E1,-6.108652451E-4,2.138028387E-3,7.635815418E-4
6.558455111E1,-6.108652451E-4,9.162978968E-4,-4.581489484E-4
6.563455111E1,-6.108652451E-4,-3.054326226E-4,-4.581489484E-4
6.568455111E1,-6.108652451E-4,9.162978968E-4,-4.581489484E-4
6.573455111E1,-1.832595794E-3,9.162978968E-4,7.635815418E-4
6.578455111E1,6.108652451E-4,9.162978968E-4,-1.679879380E-3
6.583455111E1,-6.108652451E-4,9.162978968E-4,-4.581489484E-4
6.588455111E1,-6.108652451E-4,-2.748893574E-3,7.635815418E-4
6.593455111E1,-6.108652451E-4,-3.054326226E-4,-4.581489484E-4
6.598455111E1,6.108652451E-4,-1.527163084E-3,-4.581489484E-4
6.603455111E1,-6.108652451E-4,9.162978968E-4,-4.581489484E-4
6.608455111E1,6.108652451E-4,-3.054326226E-4,7.635815418E-4
6.613455111E1,-1.679879380E-3,3.359758761E-3,7.635815418E-4
6.618455111E1,-6.108652451E-4,9.162978968E-4,7.635815418E-4
6.623455111E1,-1.832595794E-3,-1.527163084E-3,-4.581489484E-4
6.628455111E1,6.108652451E-4,2.138028387E-3,-4.581489484E-4
6.633455111E1,-6.108652451E-4,9.162978968E-4,-4.581489484E-4
6.638455111E1,-6.108652451E-4,9.162978968E-4,-4.581489484E-4
6.643455111E1,6.108652451E-4,2.138028387E-3,-4.581489484E-4
6.648455111E1,6.108652451E-4,-3.054326226E-4,-4.581489484E-4
6.653455111E1,1.832595794E-3,-1.527163084E-3,-4.581489484E-4
6.658455111E1,-6.108652451E-4,9.162978968E-4,-4.581489484E-4
6.663455111E1,-1.832595794E-3,9.162978968E-4,7.635815418E-4
6.668455111E1,-6.108652451E-4,2.138028387E-3,7.635815418E-4
6.673455111E1,-6.108652451E-4,1.985311974E-3,-4.581489484E-4
6.678455111E1,6.108652451E-4,7.635815418E-4,7.635815418E-4
6.683455111E1,6.108652451E-4,-1.679879380E-3,7.635815418E-4
6.688455111E1,-1.832595794E-3,-1.679879380E-3,-4.581489484E-4
6.693455111E1,6.108652451E-4,-4.581489484E-4,-4.581489484E-4
6.698455111E1,-6.108652451E-4,-4.581489484E-4,7.635815418E-4
6.703455111E1,6.108652451E-4,-1.679879380E-3,-4.581489484E-4
6.708455111E1,6.108652451E-4,-1.679879380E-3,-4.581489484E-4
6.713455111E1,-6.108652451E-4,-4.581489484E-4,7.635815418E-4
6.718455111E1,6.108652451E-4,7.635815418E-4,7.635815418E-4
6.723455111E1,-1.832595794E-3,1.985311974E-3,-4.581489484E-4
6.728455111E1,-6.108652451E-4,-4.581489484E-4,-1.679879380E-3
6.733455111E1,6.108652451E-4,-1.679879380E-3,7.635815418E-4
6.738455111E1,6.108652451E-4,7.635815418E-4,-4.581489484E-4
6.743455111E1,6.108652451E-4,7.635815418E-4,7.635815418E-4
6.748455111E1,6.108652451E-4,7.635815418E-4,-4.581489484E-4
6.753455111E1,6.108652451E-4,3.054326167E-3,-4.581489484E-4
6.758455111E1,-6.108652451E-4,-4.581489484E-4,-4.581489484E-4
6.763455111E1,-6.108652451E-4,-4.581489484E-4,-4.581489484E-4
6.768455111E1,6.108652451E-4,-1.679879380E-3,-4.581489484E-4
6.773455111E1,-1.832595794E-3,1.985311974E-3,-4.581489484E-4
6.778455111E1,-1.679879380E-3,1.985311974E-3,7.635815418E-4
6.783455111E1,-6.108652451E-4,-4.581489484E-4,-4.581489484E-4
6.788455111E1,-6.108652451E-4,1.985311974E-3,-4.581489484E-4
6.793455111E1,6.108652451E-4,-2.901609987E-3,-4.581489484E-4
6.798455111E1,6.108652451E-4,-4.581489484E-4,-4.581489484E-4
6.803455111E1,6.108652451E-4,7.635815418E-4,-4.581489484E-4
6.808455111E1,6.108652451E-4,-4.581489484E-4,7.635815418E-4
6.813455111E1,-6.108652451E-4,1.985311974E-3,7.635815418E-4
6.818455111E1,6.108652451E-4,-1.679879380E-3,-4.581489484E-4
6.823455111E1,-6.108652451E-4,-4.581489484E-4,-4.581489484E-4
6.828455111E1,-6.108652451E-4,7.635815418E-4,-4.581489484E-4
6.833455111E1,-6.108652451E-4,-4.581489484E-4,7.635815418E-4
6.838455111E1,6.108652451E-4,7.635815418E-4,-4.581489484E-4
6.843455111E1,-6.108652451E-4,-1.679879380E-3,7.635815418E-4
6.848455111E1,-6.108652451E-4,7.635815418E-4,7.635815418E-4
6.853455111E1,-1.832595794E-3,-1.679879380E-3,-4.581489484E-4
6.858455111E1,6.108652451E-4,-1.679879380E-3,7.635815418E-4
6.863455111E1,6.108652451E-4,7.635815418E-4,7.635815418E-4
6.868455111E1,6.108652451E-4,-4.581489484E-4,-4.581489484E-4
6.873455111E1,6.108652451E-4,7.635815418E-4,-4.581489484E-4
6.878455111E1,6.108652451E-4,-1.679879380E-3,-4.581489484E-4
6.883455111E1,-4.581489484E-4,7.635815418E-4,1.985311974E-3
6.888455111E1,-6.108652451E-4,7.635815418E-4,7.635815418E-4
6.893455111E1,6.108652451E-4,7.635815418E-4,-4.581489484E-4
6.898455111E1,-6.108652451E-4,-4.581489484E-4,-4.581489484E-4
6.903455111E1,6.108652451E-4,-4.581489484E-4,7.635815418E-4
6.908455111E1,6.108652451E-4,-1.679879380E-3,-4.581489484E-4
6.913455111E1,6.108652451E-4,1.985311974E-3,-4.581489484E-4
6.918455111E1,6.108652451E-4,-4.581489484E-4,7.635815418E-4
6.923455111E1,6.108652451E-4,7.635815418E-4,-4.581489484E-4
6.928455111E1,6.108652451E-4,-1.679879380E-3,-4.581489484E-4
6.933455111E1,-6.108652451E-4,3.207042580E-3,-4.581489484E-4
6.938455111E1,-6.108652451E-4,-1.679879380E-3,-4.581489484E-4
6.943455111E1,-1.832595794E-3,-4.581489484E-4,7.635815418E-4
6.948455111E1,-6.108652451E-4,-4.581489484E-4,-4.581489484E-4
6.953455111E1,1.832595794E-3,-4.123340361E-3,-4.581489484E-4
6.958455111E1,6.108652451E-4,7.635815418E-4,-4.581489484E-4
6.963455111E1,1.832595794E-3,-1.679879380E-3,-4.581489484E-4
6.968455111E1,6.108652451E-4,-4.581489484E-4,7.635815418E-4
6.973455111E1,7.635815418E-4,-1.679879380E-3,-4.581489484E-4
6.978455111E1,-1.527163084E-3,1.985311974E-3,7.635815418E-4
6.983455111E1,-4.581489484E-4,1.985311974E-3,-4.581489484E-4
6.988455111E1,-4.581489484E-4,7.635815418E-4,-4.581489484E-4
6.993455111E1,7.635815418E-4,7.635815418E-4,-4.581489484E-4
6.998455111E1,7.635815418E-4,1.985311974E-3,-4.581489484E-4
7.003455111E1,-4.581489484E-4,-1.679879380E-3,-4.581489484E-4
7.008455111E1,7.635815418E-4,-1.679879380E-3,-4.581489484E-4
7.013455111E1,7.635815418E-4,-1.679879380E-3,-4.581489484E-4
7.018455111E1,-4.581489484E-4,7.635815418E-4,-4.581489484E-4
7.023455111E1,7.635815418E-4,-2.901609987E-3,-4.581489484E-4
7.028455111E1,-4.581489484E-4,-4.581489484E-4,7.635815418E-4
7.033455111E1,7.635815418E-4,-4.581489484E-4,-1.679879380E-3
7.038455111E1,-4.581489484E-4,7.635815418E-4,-4.581489484E-4
7.043455111E1,-1.679879380E-3,-4.581489484E-4,-4.581489484E-4
7.048455111E1,-4.581489484E-4,7.635815418E-4,-4.581489484E-4
7.053455111E1,7.635815418E-4,-1.679879380E-3,7.635815418E-4
7.058455111E1,7.635815418E-4,-1.679879380E-3,7.635815418E-4
7.063455111E1,1.985311974E-3,-1.679879380E-3,-4.581489484E-4
7.068455111E1,7.635815418E-4,-4.581489484E-4,7.635815418E-4
7.073455111E1,-4.581489484E-4,-4.581489484E-4,-4.581489484E-4
7.078455111E1,-4.581489484E-4,-1.679879380E-3,-4.581489484E-4
7.083455111E1,-4.581489484E-4,7.635815418E-4,7.635815418E-4
7.088455111E1,-1.679879380E-3,1.985311974E-3,-1.679879380E-3
7.093455111E1,7.635815418E-4,1.985311974E-3,-4.581489484E-4
7.098455111E1,-4.581489484E-4,7.635815418E-4,-4.581489484E-4
7.103455111E1,7.635815418E-4,-4.581489484E-4,7.635815418E-4
7.108455111E1,7.635815418E-4,1.985311974E-3,-4.581489484E-4
7.113455111E1,7.635815418E-4,-4.581489484E-4,-4.581489484E-4
7.118455111E1,7.635815418E-4,-4.581489484E-4,7.635815418E-4
7.123455111E1,-6.108652451E-4,7.635815418E-4,7.635815418E-4
7.128455111E1,1.832595794E-3,-4.581489484E-4,-4.581489484E-4
7.133455111E1,-6.108652451E-4,7.635815418E-4,-4.581489484E-4
7.138455111E1,-6.108652451E-4,-4.581489484E-4,7.635815418E-4
7.143455111E1,6.108652451E-4,-4.581489484E-4,-4.581489484E-4
7.148455111E1,6.108652451E-4,7.635815418E-4,-1.679879380E-3
7.153455111E1,6.108652451E-4,-1.679879380E-3,-4.581489484E-4
7.158455111E1,6.108652451E-4,7.635815418E-4,7.635815418E-4
7.163455111E1,6.108652451E-4,-4.581489484E-4,-4.581489484E-4
7.168455111E1,6.108652451E-4,1.985311974E-3,-4.581489484E-4
7.173455111E1,6.108652451E-4,-2.901609987E-3,-1.679879380E-3
7.178455111E1,6.108652451E-4,7.635815418E-4,-4.581489484E-4
7.183455111E1,-6.108652451E-4,7.635815418E-4,-4.581489484E-4
7.188455111E1,-6.108652451E-4,-4.581489484E-4,7.635815418E-4
7.193455111E1,-6.108652451E-4,7.635815418E-4,7.635815418E-4
7.198455111E1,6.108652451E-4,-1.679879380E-3,-4.581489484E-4
7.203455111E1,-6.108652451E-4,1.985311974E-3,-4.581489484E-4
7.208455111E1,6.108652451E-4,-4.581489484E-4,7.635815418E-4
7.213455111E1,6.108652451E-4,7.635815418E-4,-4.581489484E-4
7.218455111E1,6.108652451E-4,-1.679879380E-3,7.635815418E-4
7.223455111E1,1.832595794E-3,7.635815418E-4,7.635815418E-4
7.228455111E1,6.108652451E-4,7.635815418E-4,7.635815418E-4
7.233455111E1,-4.581489484E-4,4.276056774E-3,7.635815418E-4
7.238455111E1,-6.108652451E-4,1.985311974E-3,-4.581489484E-4
7.243455111E1,-6.108652451E-4,-1.679879380E-3,-1.679879380E-3
7.248455111E1,-1.832595794E-3,7.635815418E-4,-4.581489484E-4
7.253455111E1,-1.832595794E-3,1.985311974E-3,-4.581489484E-4
7.258455111E1,-1.832595794E-3,-1.679879380E-3,-4.581489484E-4
7.263455111E1,6.108652451E-4,7.635815418E-4,-4.581489484E-4
7.268455111E1,7.635815418E-4,3.054326167E-3,7.635815418E-4
7.273455111E1,6.108652451E-4,-2.901609987E-3,-4.581489484E-4
7.278455111E1,6.108652451E-4,-4.123340361E-3,-1.679879380E-3
7.283455111E1,6.108652451E-4,-4.581489484E-4,7.635815418E-4
7.288455111E1,6.108652451E-4,7.635815418E-4,7.635815418E-4
7.293455111E1,-6.108652451E-4,-1.679879380E-3,7.635815418E-4
7.298455111E1,-6.108652451E-4,1.985311974E-3,-4.581489484E-4
7.303455111E1,-6.108652451E-4,7.635815418E-4,7.635815418E-4
7.308455111E1,-6.108652451E-4,-4.581489484E-4,-4.581489484E-4
7.313455111E1,6.108652451E-4,1.985311974E-3,-4.581489484E-4
7.318455111E1,6.108652451E-4,-4.581489484E-4,-4.581489484E-4
7.323455111E1,7.635815418E-4,3.207042580E-3,7.635815418E-4
7.328455111E1,6.108652451E-4,7.635815418E-4,-4.581489484E-4
7.333455111E1,6.108652451E-4,7.635815418E-4,7.635815418E-4
7.338455111E1,-1.832595794E-3,-1.679879380E-3,-1.679879380E-3
7.343455111E1,-6.108652451E-4,-1.679879380E-3,7.635815418E-4
7.348455111E1,-6.108652451E-4,-1.679879380E-3,-4.581489484E-4
7.353455111E1,-6.108652451E-4,-2.901609987E-3,-4.581489484E-4
7.358455111E1,6.108652451E-4,7.635815418E-4,7.635815418E-4
7.363455111E1,6.108652451E-4,7.635815418E-4,-4.581489484E-4
7.368455111E1,-6.108652451E-4,-4.581489484E-4,-4.581489484E-4
7.373455111E1,7.635815418E-4,3.054326167E-3,7.635815418E-4
7.378455111E1,6.108652451E-4,-1.679879380E-3,-4.581489484E-4
7.383455111E1,-6.108652451E-4,1.985311974E-3,-4.581489484E-4
7.388455111E1,-6.108652451E-4,7.635815418E-4,7.635815418E-4
7.393455111E1,-6.108652451E-4,7.635815418E-4,-4.581489484E-4
7.398455111E1,6.108652451E-4,-4.581489484E-4,7.635815418E-4
7.403455111E1,-6.108652451E-4,7.635815418E-4,7.635815418E-4
7.408455111E1,1.832595794E-3,7.635815418E-4,7.635815418E-4
7.413455111E1,6.108652451E-4,-1.679879380E-3,-4.581489484E-4
7.418455111E1,-6.108652451E-4,7.635815418E-4,7.635815418E-4
7.423455111E1,-6.108652451E-4,-1.679879380E-3,7.635815418E-4
7.428455111E1,6.108652451E-4,7.635815418E-4,7.635815418E-4
7.433455111E1,-6.108652451E-4,-4.581489484E-4,-4.581489484E-4
7.438455111E1,6.108652451E-4,3.207042580E-3,-4.581489484E-4
7.443455111E1,-6.108652451E-4,-4.581489484E-4,7.635815418E-4
7.448455111E1,6.108652451E-4,-2.901609987E-3,-4.581489484E-4
7.453455111E1,6.108652451E-4,-1.679879380E-3,-4.581489484E-4
7.458455111E1,-6.108652451E-4,-4.581489484E-4,7.635815418E-4
7.463455111E1,6.108652451E-4,-4.581489484E-4,-4.581489484E-4
7.468455111E1,-6.108652451E-4,7.635815418E-4,7.635815418E-4
7.473455111E1,6.108652451E-4,-2.901609987E-3,-4.581489484E-4
7.478455111E1,-6.108652451E-4,-1.679879380E-3,-4.581489484E-4
7.483455111E1,-6.108652451E-4,1.985311974E-3,-4.581489484E-4
7.488455111E1,6.108652451E-4,-4.581489484E-4,7.635815418E-4
7.493455111E1,7.635815418E-4,3.054326167E-3,7.635815418E-4
7.498455111E1,-1.832595794E-3,7.635815418E-4,7.635815418E-4
7.503455111E1,-6.108652451E-4,7.635815418E-4,-4.581489484E-4
7.508455111E1,-6.108652451E-4,-4.581489484E-4,7.635815418E-4
7.513455111E1,-6.108652451E-4,-2.901609987E-3,7.635815418E-4
7.518455111E1,-6.108652451E-4,-4.581489484E-4,7.635815418E-4
7.523455111E1,6.108652451E-4,7.635815418E-4,-4.581489484E-4
7.528455111E1,6.108652451E-4,7.635815418E-4,-4.581489484E-4
7.533455111E1,6.108652451E-4,-4.581489484E-4,7.635815418E-4
7.538455111E1,-4.581489484E-4,3.207042580E-3,7.635815418E-4
7.543455111E1,6.108652451E-4,7.635815418E-4,1.985311974E-3
7.548455111E1,6.108652451E-4,-4.581489484E-4,-4.581489484E-4
7.553455111E1,-6.108652451E-4,1.985311974E-3,-4.581489484E-4
7.558455111E1,-1.832595794E-3,1.985311974E-3,-4.581489484E-4
7.563455111E1,-1.832595794E-3,7.635815418E-4,-4.581489484E-4
7.568455111E1,-6.108652451E-4,7.635815418E-4,7.635815418E-4
7.573455111E1,-6.108652451E-4,7.635815418E-4,-4.581489484E-4
7.578455111E1,-6.108652451E-4,-1.679879380E-3,7.635815418E-4
7.583455111E1,6.108652451E-4,-1.679879380E-3,1.985311974E-3
7.588455111E1,6.108652451E-4,-1.679879380E-3,-4.581489484E-4
7.593455111E1,-6.108652451E-4,-4.581489484E-4,-4.581489484E-4
7.598455111E1,-4.581489484E-4,4.276056774E-3,7.635815418E-4
7.603455111E1,6.108652451E-4,-2.901609987E-3,-4.581489484E-4
7.608455111E1,-6.108652451E-4,-4.581489484E-4,7.635815418E-4
7.613455111E1,6.108652451E-4,7.635815418E-4,7.635815418E-4
7.618455111E1,-6.108652451E-4,7.635815418E-4,7.635815418E-4
7.623455111E1,-6.108652451E-4,-4.581489484E-4,-4.581489484E-4
7.628455111E1,-6.108652451E-4,-1.679879380E-3,-4.581489484E-4
7.633455111E1,-6.108652451E-4,1.985311974E-3,-4.581489484E-4
7.638455111E1,6.108652451E-4,-4.581489484E-4,-4.581489484E-4
7.643455111E1,6.108652451E-4,-1.679879380E-3,-4.581489484E-4
7.648455111E1,-6.108652451E-4,1.985311974E-3,-4.581489484E-4
7.653455111E1,-6.108652451E-4,3.207042580E-3,-4.581489484E-4
7.658455111E1,1.832595794E-3,-4.581489484E-4,-4.581489484E-4
7.663455111E1,-6.108652451E-4,1.985311974E-3,7.635815418E-4
7.668455111E1,-6.108652451E-4,1.985311974E-3,-4.581489484E-4
7.673455111E1,-1.679879380E-3,3.207042580E-3,-4.581489484E-4
7.678455111E1,-6.108652451E-4,7.635815418E-4,7.635815418E-4
7.683455111E1,6.108652451E-4,1.985311974E-3,-4.581489484E-4
7.688455111E1,6.108652451E-4,-4.581489484E-4,7.635815418E-4
7.693455111E1,-6.108652451E-4,3.207042580E-3,-4.581489484E-4
7.698455111E1,7.635815418E-4,3.054326167E-3,7.635815418E-4
7.703455111E1,-6.108652451E-4,1.985311974E-3,-4.581489484E-4
7.708455111E1,-6.108652451E-4,7.635815418E-4,7.635815418E-4
7.713455111E1,-6.108652451E-4,1.985311974E-3,-4.581489484E-4
7.718455111E1,-6.108652451E-4,7.635815418E-4,-4.581489484E-4
7.723455111E1,6.108652451E-4,7.635815418E-4,7.635815418E-4
7.728455111E1,-6.108652451E-4,7.635815418E-4,-4.581489484E-4
7.733455111E1,-6.108652451E-4,7.635815418E-4,-4.581489484E-4
7.738455111E1,6.108652451E-4,-1.679879380E-3,7.635815418E-4
7.743455111E1,6.108652451E-4,1.985311974E-3,7.635815418E-4
7.748455111E1,-6.108652451E-4,-4.581489484E-4,-4.581489484E-4
7.753455111E1,-6.108652451E-4,7.635815418E-4,7.635815418E-4
7.758455111E1,-6.108652451E-4,-4.581489484E-4,-4.581489484E-4
7.763455111E1,-6.108652451E-4,7.635815418E-4,7.635815418E-4
7.768455111E1,-6.108652451E-4,-4.581489484E-4,7.635815418E-4
7.773455111E1,-1.832595794E-3,-4.581489484E-4,-4.581489484E-4
7.778455111E1,-6.108652451E-4,-2.901609987E-3,-4.581489484E-4
7.783455111E1,6.108652451E-4,-4.581489484E-4,-4.581489484E-4
7.788455111E1,6.108652451E-4,-4.581489484E-4,7.635815418E-4
7.793455111E1,-6.108652451E-4,-4.581489484E-4,7.635815418E-4
7.798455111E1,6.108652451E-4,-4.581489484E-4,-4.581489484E-4
7.803455111E1,-1.832595794E-3,7.635815418E-4,7.635815418E-4
7.808455111E1,-6.108652451E-4,-4.581489484E-4,-4.581489484E-4
7.813455111E1,-6.108652451E-4,-1.679879380E-3,-4.581489484E-4
7.818455111E1,-6.108652451E-4,-4.581489484E-4,7.635815418E-4
7.823455111E1,6.108652451E-4,1.985311974E-3,-4.581489484E-4
7.828455111E1,-6.108652451E-4,-4.581489484E-4,7.635815418E-4
7.833455111E1,-6.108652451E-4,-4.581489484E-4,7.635815418E-4
7.838455111E1,1.832595794E-3,-4.581489484E-4,-4.581489484E-4
7.843455111E1,6.108652451E-4,7.635815418E-4,7.635815418E-4
7.848455111E1,-6.108652451E-4,7.635815418E-4,7.635815418E-4
7.853455111E1,6.108652451E-4,1.985311974E-3,7.635815418E-4
7.858455111E1,-6.108652451E-4,1.985311974E-3,-4.581489484E-4
7.863455111E1,-6.108652451E-4,7.635815418E-4,7.635815418E-4
7.868455111E1,6.108652451E-4,-1.679879380E-3,-1.679879380E-3
7.873455111E1,-6.108652451E-4,3.207042580E-3,-4.581489484E-4
7.878455111E1,-6.108652451E-4,-1.679879380E-3,-4.581489484E-4
7.883455111E1,1.832595794E-3,7.635815418E-4,7.635815418E-4
7.888455111E1,6.108652451E-4,-4.581489484E-4,7.635815418E-4
7.893455111E1,6.108652451E-4,1.985311974E-3,-4.581489484E-4
7.898455111E1,6.108652451E-4,3.207042580E-3,-4.581489484E-4
7.903455111E1,-6.108652451E-4,-1.679879380E-3,7.635815418E-4
7.908455111E1,-6.108652451E-4,1.985311974E-3,7.635815418E-4
7.913455111E1,-6.108652451E-4,7.635815418E-4,-4.581489484E-4
7.918455111E1,-1.832595794E-3,-1.679879380E-3,-4.581489484E-4
7.923455111E1,-4.581489484E-4,1.985311974E-3,1.985311974E-3
7.928455111E1,6.108652451E-4,-1.679879380E-3,7.635815418E-4
7.933455111E1,-1.832595794E-3,-4.581489484E-4,-4.581489484E-4
7.938455111E1,-6.108652451E-4,-4.581489484E-4,-4.581489484E-4
7.943455111E1,6.108652451E-4,1.985311974E-3,-4.581489484E-4
7.948455111E1,1.832595794E-3,-4.581489484E-4,7.635815418E-4
7.953455111E1,-6.108652451E-4,7.635815418E-4,-4.581489484E-4
7.958455111E1,1.832595794E-3,-2.901609987E-3,-4.581489484E-4
7.963455111E1,6.108652451E-4,7.635815418E-4,7.635815418E-4
7.968455111E1,-6.108652451E-4,-4.581489484E-4,-4.581489484E-4
7.973455111E1,-6.108652451E-4,1.985311974E-3,7.635815418E-4
7.978455111E1,6.108652451E-4,-4.581489484E-4,-4.581489484E-4
7.983455111E1,-1.832595794E-3,-4.581489484E-4,-4.581489484E-4
7.988455111E1,6.108652451E-4,-1.679879380E-3,-4.581489484E-4
7.993455111E1,-6.108652451E-4,3.207042580E-3,-4.581489484E-4
7.998455111E1,6.108652451E-4,7.635815418E-4,-4.581489484E-4
8.003455111E1,6.108652451E-4,-1.679879380E-3,-4.581489484E-4
8.008455111E1,6.108652451E-4,7.635815418E-4,7.635815418E-4
8.013455111E1,-6.108652451E-4,-2.901609987E-3,-4.581489484E-4
8.018455111E1,6.108652451E-4,-1.679879380E-3,7.635815418E-4
8.023455111E1,-6.108652451E-4,7.635815418E-4,7.635815418E-4
8.028455111E1,-6.108652451E-4,-1.679879380E-3,7.635815418E-4
8.033455111E1,-6.108652451E-4,7.635815418E-4,7.635815418E-4
8.038455111E1,1.832595794E-3,7.635815418E-4,7.635815418E-4
8.043455111E1,-6.108652451E-4,-4.581489484E-4,7.635815418E-4
8.048455111E1,-6.108652451E-4,7.635815418E-4,-4.581489484E-4
8.053455111E1,1.832595794E-3,-4.581489484E-4,-4.581489484E-4
8.058455111E1,1.832595794E-3,-4.581489484E-4,-4.581489484E-4
8.063455111E1,-6.108652451E-4,7.635815418E-4,-4.581489484E-4
8.068455111E1,6.108652451E-4,7.635815418E-4,7.635815418E-4
8.073455111E1,-6.108652451E-4,-4.581489484E-4,-4.581489484E-4
8.078455111E1,-4.581489484E-4,1.985311974E-3,7.635815418E-4
8.083455111E1,6.108652451E-4,7.635815418E-4,7.635815418E-4
8.088455111E1,-6.108652451E-4,1.985311974E-3,7.635815418E-4
8.093455111E1,-6.108652451E-4,7.635815418E-4,7.635815418E-4
8.098455111E1,-4.581489484E-4,1.985311974E-3,7.635815418E-4
8.103455111E1,6.108652451E-4,1.985311974E-3,7.635815418E-4
8.108455111E1,1.832595794E-3,1.985311974E-3,-4.581489484E-4
8.113455111E1,6.108652451E-4,7.635815418E-4,-4.581489484E-4
8.118455111E1,-6.108652451E-4,1.985311974E-3,7.635815418E-4
8.123455111E1,6.108652451E-4,7.635815418E-4,-4.581489484E-4
8.128455111E1,-6.108652451E-4,7.635815418E-4,-4.581489484E-4
8.133455111E1,-1.679879380E-3,4.428773187E-3,7.635815418E-4
8.138455111E1,-6.108652451E-4,-2.901609987E-3,-4.581489484E-4
8.143455111E1,6.108652451E-4,-1.679879380E-3,-4.581489484E-4
8.148455111E1,6.108652451E-4,1.985311974E-3,-4.581489484E-4
8.153455111E1,1.832595794E-3,1.985311974E-3,-4.581489484E-4
8.158455111E1,6.108652451E-4,1.985311974E-3,7.635815418E-4
8.163455111E1,1.832595794E-3,-2.901609987E-3,-4.581489484E-4
8.168455111E1,6.108652451E-4,-4.581489484E-4,-4.581489484E-4
8.173455111E1,6.108652451E-4,7.635815418E-4,-4.581489484E-4
8.178455111E1,-6.108652451E-4,-1.679879380E-3,-4.581489484E-4
8.183455111E1,6.108652451E-4,-1.679879380E-3,-4.581489484E-4
8.188455111E1,-6.108652451E-4,-4.581489484E-4,-4.581489484E-4
8.193455111E1,-6.108652451E-4,-1.679879380E-3,-4.581489484E-4
8.198455111E1,6.108652451E-4,-4.581489484E-4,7.635815418E-4
8.203455111E1,6.108652451E-4,-1.679879380E-3,7.635815418E-4
8.208455111E1,-1.832595794E-3,-4.581489484E-4,7.635815418E-4
8.213455111E1,6.108652451E-4,-4.581489484E-4,-4.581489484E-4
8.218455111E1,6.108652451E-4,7.635815418E-4,7.635815418E-4
8.223455111E1,-6.108652451E-4,-1.679879380E-3,7.635815418E-4
8.228455111E1,-6.108652451E-4,-2.901609987E-3,-4.581489484E-4
8.233455111E1,-1.832595794E-3,-4.581489484E-4,7.635815418E-4
8.238455111E1,6.108652451E-4,-4.581489484E-4,-4.581489484E-4
8.243455111E1,-6.108652451E-4,1.985311974E-3,-4.581489484E-4
8.248455111E1,-6.108652451E-4,7.635815418E-4,-4.581489484E-4
8.253455111E1,6.108652451E-4,-1.679879380E-3,-4.581489484E-4
8.258455111E1,1.832595794E-3,1.832595794E-3,7.635815418E-4
8.263455111E1,-6.108652451E-4,7.635815418E-4,-4.581489484E-4
8.268455111E1,-6.108652451E-4,7.635815418E-4,-4.581489484E-4
8.273455111E1,-6.108652451E-4,7.635815418E-4,7.635815418E-4
8.278455111E1,1.832595794E-3,-1.679879380E-3,-4.581489484E-4
8.283455111E1,6.108652451E-4,1.985311974E-3,-4.581489484E-4
8.288455111E1,1.832595794E-3,7.635815418E-4,-4.581489484E-4
8.293455111E1,-6.108652451E-4,1.985311974E-3,7.635815418E-4
8.298455111E1,-6.108652451E-4,-1.679879380E-3,7.635815418E-4
8.303455111E1,-6.108652451E-4,-4.581489484E-4,-4.581489484E-4
8.308455111E1,-6.108652451E-4,-4.581489484E-4,-4.581489484E-4
8.313455111E1,6.108652451E-4,-4.581489484E-4,7.635815418E-4
8.318455111E1,6.108652451E-4,-2.901609987E-3,7.635815418E-4
8.323455111E1,6.108652451E-4,-1.679879380E-3,7.635815418E-4
8.328455111E1,-6.108652451E-4,7.635815418E-4,-4.581489484E-4
8.333455111E1,-6.108652451E-4,1.985311974E-3,7.635815418E-4
8.338455111E1,-6.108652451E-4,-2.901609987E-3,7.635815418E-4
8.343455111E1,-6.108652451E-4,-4.581489484E-4,7.635815418E-4
8.348455111E1,6.108652451E-4,1.985311974E-3,-4.581489484E-4
8.353455111E1,1.832595794E-3,-4.581489484E-4,-4.581489484E-4
8.358455111E1,6.108652451E-4,-1.679879380E-3,-4.581489484E-4
8.363455111E1,-6.108652451E-4,-4.581489484E-4,-4.581489484E-4
8.368455111E1,6.108652451E-4,-4.581489484E-4,7.635815418E-4
8.373455111E1,-6.108652451E-4,7.635815418E-4,-4.581489484E-4
8.378455111E1,-1.832595794E-3,7.635815418E-4,7.635815418E-4
8.383455111E1,6.108652451E-4,7.635815418E-4,7.635815418E-4
8.388455111E1,-6.108652451E-4,-1.679879380E-3,-4.581489484E-4
8.393455111E1,6.108652451E-4,3.054326167E-3,-4.581489484E-4
8.398455111E1,-6.108652451E-4,1.985311974E-3,-4.581489484E-4
8.403455111E1,-6.108652451E-4,-2.901609987E-3,-4.581489484E-4
8.408455111E1,6.108652451E-4,-4.581489484E-4,-4.581489484E-4
8.413455111E1,-6.108652451E-4,7.635815418E-4,-4.581489484E-4
8.418455111E1,-6.108652451E-4,7.635815418E-4,-4.581489484E-4
8.423455111E1,-6.108652451E-4,-4.581489484E-4,-4.581489484E-4
8.428455111E1,6.108652451E-4,1.985311974E-3,-4.581489484E-4
8.433455111E1,-6.108652451E-4,-4.581489484E-4,-4.581489484E-4
8.438455111E1,-6.108652451E-4,-1.679879380E-3,7.635815418E-4
8.443455111E1,-6.108652451E-4,7.635815418E-4,-4.581489484E-4
8.448455111E1,-6.108652451E-4,7.635815418E-4,-4.581489484E-4
8.453455111E1,-1.832595794E-3,7.635815418E-4,7.635815418E-4
8.458455111E1,6.108652451E-4,-4.581489484E-4,7.635815418E-4
8.463455111E1,6.108652451E-4,-1.679879380E-3,-1.679879380E-3
8.468455111E1,-6.108652451E-4,7.635815418E-4,7.635815418E-4
8.473455111E1,-6.108652451E-4,-3.054326226E-4,-4.581489484E-4
8.478455111E1,-6.108652451E-4,-3.054326226E-4,7.635815418E-4
8.483455111E1,-1.832595794E-3,-3.054326226E-4,7.635815418E-4
8.488455111E1,-6.108652451E-4,-3.054326226E-4,7.635815418E-4
8.493455111E1,-1.832595794E-3,-2.748893574E-3,7.635815418E-4
8.498455111E1,-6.108652451E-4,9.162978968E-4,-4.581489484E-4
8.503455111E1,-6.108652451E-4,9.162978968E-4,-4.581489484E-4
8.508455111E1,6.108652451E-4,2.138028387E-3,7.635815418E-4
8.513455111E1,-6.108652451E-4,9.162978968E-4,-4.581489484E-4
8.518455111E1,6.108652451E-4,-3.054326226E-4,7.635815418E-4
8.523455111E1,-4.581489484E-4,2.138028387E-3,7.635815418E-4
8.528455111E1,6.108652451E-4,-3.054326226E-4,-4.581489484E-4
8.533455111E1,6.108652451E-4,-3.054326226E-4,7.635815418E-4
8.538455111E1,-6.108652451E-4,9.162978968E-4,7.635815418E-4
8.543455111E1,6.108652451E-4,9.162978968E-4,-4.581489484E-4
8.548455111E1,6.108652451E-4,9.162978968E-4,7.635815418E-4
8.553455111E1,-1.832595794E-3,-1.527163084E-3,-1.679879380E-3
8.558455111E1,-6.108652451E-4,-1.527163084E-3,-4.581489484E-4
8.563455111E1,-6.108652451E-4,-1.527163084E-3,7.635815418E-4
8.568455111E1,6.108652451E-4,9.162978968E-4,7.635815418E-4
8.573455111E1,6.108652451E-4,2.138028387E-3,-4.581489484E-4
8.578455111E1,-6.108652451E-4,-1.527163084E-3,-4.581489484E-4
8.583455111E1,-6.108652451E-4,9.162978968E-4,7.635815418E-4
8.588455111E1,-6.108652451E-4,-3.054326226E-4,-4.581489484E-4
8.593455111E1,-6.108652451E-4,9.162978968E-4,-4.581489484E-4
8.598455111E1,-6.108652451E-4,-1.527163084E-3,-4.581489484E-4
8.603455111E1,6.108652451E-4,9.162978968E-4,-4.581489484E-4
8.608455111E1,-1.832595794E-3,-1.527163084E-3,7.635815418E-4
8.613455111E1,-1.832595794E-3,2.138028387E-3,-4.581489484E-4
8.618455111E1,6.108652451E-4,9.162978968E-4,-4.581489484E-4
8.623455111E1,6.108652451E-4,3.207042580E-3,-4.581489484E-4
8.628455111E1,1.832595794E-3,-3.054326226E-4,-4.581489484E-4
8.633455111E1,-6.108652451E-4,9.162978968E-4,-1.679879380E-3
8.638455111E1,6.108652451E-4,-3.054326226E-4,-4.581489484E-4
8.643455111E1,6.108652451E-4,9.162978968E-4,-4.581489484E-4
8.648455111E1,6.108652451E-4,2.138028387E-3,-4.581489484E-4
8.653455111E1,-6.108652451E-4,-2.901609987E-3,-4.581489484E-4
8.658455111E1,-6.108652451E-4,7.635815418E-4,-4.581489484E-4
8.663455111E1,-1.832595794E-3,-4.581489484E-4,7.635815418E-4
8.668455111E1,6.108652451E-4,-1.679879380E-3,-4.581489484E-4
8.673455111E1,6.108652451E-4,-4.581489484E-4,-4.581489484E-4
8.678455111E1,6.108652451E-4,-4.581489484E-4,-4.581489484E-4
8.683455111E1,1.832595794E-3,1.832595794E-3,-4.581489484E-4
8.688455111E1,-6.108652451E-4,-4.581489484E-4,-4.581489484E-4
8.693455111E1,-6.108652451E-4,7.635815418E-4,-4.581489484E-4
8.698455111E1,-6.108652451E-4,-4.581489484E-4,7.635815418E-4
8.703455111E1,-6.108652451E-4,7.635815418E-4,7.635815418E-4
8.708455111E1,-6.108652451E-4,-4.581489484E-4,-4.581489484E-4
8.713455111E1,-6.108652451E-4,7.635815418E-4,7.635815418E-4
8.718455111E1,6.108652451E-4,-2.901609987E-3,-4.581489484E-4
8.723455111E1,-6.108652451E-4,7.635815418E-4,-4.581489484E-4
8.728455111E1,6.108652451E-4,-4.581489484E-4,-1.679879380E-3
8.733455111E1,6.108652451E-4,-1.679879380E-3,-4.581489484E-4
8.738455111E1,6.108652451E-4,-1.679879380E-3,-4.581489484E-4
8.743455111E1,6.108652451E-4,-1.679879380E-3,-4.581489484E-4
8.748455111E1,7.635815418E-4,3.054326167E-3,7.635815418E-4
8.753455111E1,-6.108652451E-4,-4.581489484E-4,7.635815418E-4
8.758455111E1,6.108652451E-4,7.635815418E-4,-4.581489484E-4
8.763455111E1,-6.108652451E-4,7.635815418E-4,7.635815418E-4
8.768455111E1,6.108652451E-4,3.054326167E-3,-4.581489484E-4
8.773455111E1,-6.108652451E-4,1.985311974E-3,-4.581489484E-4
8.778455111E1,-6.108652451E-4,7.635815418E-4,7.635815418E-4
8.783455111E1,-6.108652451E-4,-4.581489484E-4,-4.581489484E-4
8.788455111E1,6.108652451E-4,-4.581489484E-4,7.635815418E-4
8.793455111E1,6.108652451E-4,1.985311974E-3,7.635815418E-4
8.798455111E1,-6.108652451E-4,-1.679879380E-3,-4.581489484E-4
8.803455111E1,-6.108652451E-4,-4.581489484E-4,7.635815418E-4
8.808455111E1,-6.108652451E-4,7.635815418E-4,-4.581489484E-4
8.813455111E1,-6.108652451E-4,7.635815418E-4,7.635815418E-4
8.818455111E1,-6.108652451E-4,7.635815418E-4,-4.581489484E-4
8.823455111E1,-6.108652451E-4,1.985311974E-3,-4.581489484E-4
8.828455111E1,-6.108652451E-4,7.635815418E-4,-4.581489484E-4
8.833455111E1,6.108652451E-4,7.635815418E-4,-4.581489484E-4
8.838455111E1,6.108652451E-4,7.635815418E-4,7.635815418E-4
8.843455111E1,-6.108652451E-4,7.635815418E-4,-4.581489484E-4
8.848455111E1,-6.108652451E-4,-4.581489484E-4,7.635815418E-4
8.853455111E1,6.108652451E-4,-4.581489484E-4,-4.581489484E-4
8.858455111E1,-6.108652451E-4,-1.679879380E-3,7.635815418E-4
8.863455111E1,-1.679879380E-3,1.985311974E-3,7.635815418E-4
8.868455111E1,-6.108652451E-4,1.985311974E-3,-4.581489484E-4
8.873455111E1,-6.108652451E-4,7.635815418E-4,-4.581489484E-4
8.878455111E1,6.108652451E-4,-4.581489484E-4,-4.581489484E-4
8.883455111E1,-6.108652451E-4,-1.679879380E-3,7.635815418E-4
8.888455111E1,1.832595794E-3,7.635815418E-4,-4.581489484E-4
8.893455111E1,6.108652451E-4,7.635815418E-4,7.635815418E-4
8.898455111E1,6.108652451E-4,-4.581489484E-4,7.635815418E-4
8.903455111E1,6.108652451E-4,-4.581489484E-4,-4.581489484E-4
8.908455111E1,-6.108652451E-4,7.635815418E-4,7.635815418E-4
8.913455111E1,-6.108652451E-4,-4.581489484E-4,7.635815418E-4
8.918455111E1,-6.108652451E-4,-1.679879380E-3,-4.581489484E-4
8.923455111E1,6.108652451E-4,7.635815418E-4,-4.581489484E-4
8.928455111E1,6.108652451E-4,7.635815418E-4,7.635815418E-4
8.933455111E1,6.108652451E-4,7.635815418E-4,-4.581489484E-4
8.938455111E1,6.108652451E-4,-1.679879380E-3,7.635815418E-4
8.943455111E1,6.108652451E-4,1.832595794E-3,-4.581489484E-4
8.948455111E1,-6.108652451E-4,-4.581489484E-4,-4.581489484E-4
8.953455111E1,6.108652451E-4,7.635815418E-4,-4.581489484E-4
8.958455111E1,6.108652451E-4,7.635815418E-4,6.108652451E-4
8.963455111E1,-6.108652451E-4,-4.581489484E-4,-6.108652451E-4
8.968455111E1,-6.108652451E-4,7.635815418E-4,6.108652451E-4
8.973455111E1,-6.108652451E-4,-4.581489484E-4,-6.108652451E-4
8.978455111E1,-6.108652451E-4,7.635815418E-4,-6.108652451E-4
8.983455111E1,6.108652451E-4,-4.581489484E-4,-6.108652451E-4
8.988455111E1,6.108652451E-4,7.635815418E-4,6.108652451E-4
8.993455111E1,-6.108652451E-4,-4.581489484E-4,-1.832595794E-3
8.998455111E1,-6.108652451E-4,-1.679879380E-3,-6.108652451E-4
9.003455111E1,7.635815418E-4,1.832595794E-3,6.108652451E-4
9.008455111E1,6.108652451E-4,7.635815418E-4,-6.108652451E-4
9.013455111E1,6.108652451E-4,-1.679879380E-3,-6.108652451E-4
9.018455111E1,-1.832595794E-3,-2.901609987E-3,-6.108652451E-4
9.023455111E1,-6.108652451E-4,-4.581489484E-4,-6.108652451E-4
9.028455111E1,-1.832595794E-3,-4.581489484E-4,-6.108652451E-4
9.033455111E1,-6.108652451E-4,-4.581489484E-4,-6.108652451E-4
9.038455111E1,6.108652451E-4,-1.679879380E-3,6.108652451E-4
9.043455111E1,-4.581489484E-4,1.985311974E-3,6.108652451E-4
9.048455111E1,6.108652451E-4,-1.679879380E-3,6.108652451E-4
9.053455111E1,6.108652451E-4,7.635815418E-4,-6.108652451E-4
9.058455111E1,6.108652451E-4,-1.679879380E-3,6.108652451E-4
9.063455111E1,6.108652451E-4,7.635815418E-4,-6.108652451E-4
9.068455111E1,6.108652451E-4,-1.679879380E-3,6.108652451E-4
9.073455111E1,-1.832595794E-3,7.635815418E-4,-6.108652451E-4
9.078455111E1,6.108652451E-4,7.635815418E-4,-6.108652451E-4
9.083455111E1,-6.108652451E-4,-1.679879380E-3,6.108652451E-4
9.088455111E1,-1.832595794E-3,7.635815418E-4,-6.108652451E-4
9.093455111E1,6.108652451E-4,-1.679879380E-3,6.108652451E-4
9.098455111E1,6.108652451E-4,-4.581489484E-4,-6.108652451E-4
9.103455111E1,-6.108652451E-4,7.635815418E-4,6.108652451E-4
9.108455111E1,-6.108652451E-4,-4.581489484E-4,7.635815418E-4
9.113455111E1,6.108652451E-4,-4.581489484E-4,7.635815418E-4
9.118455111E1,-4.581489484E-4,1.985311974E-3,7.635815418E-4
9.123455111E1,6.108652451E-4,7.635815418E-4,-4.581489484E-4
9.128455111E1,-1.679879380E-3,7.635815418E-4,7.635815418E-4
9.133455111E1,-6.108652451E-4,-1.679879380E-3,7.635815418E-4
9.138455111E1,-6.108652451E-4,-1.679879380E-3,-4.581489484E-4
9.143455111E1,-6.108652451E-4,-4.581489484E-4,-4.581489484E-4
9.148455111E1,-6.108652451E-4,-4.581489484E-4,-4.581489484E-4
9.153455111E1,-6.108652451E-4,7.635815418E-4,7.635815418E-4
9.158455111E1,-6.108652451E-4,-1.679879380E-3,-4.581489484E-4
9.163455111E1,6.108652451E-4,1.832595794E-3,-4.581489484E-4
9.168455111E1,-1.832595794E-3,-4.581489484E-4,7.635815418E-4
9.173455111E1,-6.108652451E-4,1.985311974E-3,-4.581489484E-4
9.178455111E1,-6.108652451E-4,7.635815418E-4,-1.679879380E-3
9.183455111E1,-6.108652451E-4,7.635815418E-4,7.635815418E-4
9.188455111E1,-6.108652451E-4,7.635815418E-4,-4.581489484E-4
9.193455111E1,-6.108652451E-4,7.635815418E-4,-1.679879380E-3
9.198455111E1,6.108652451E-4,-1.679879380E-3,7.635815418E-4
9.203455111E1,6.108652451E-4,-4.581489484E-4,7.635815418E-4
9.208455111E1,6.108652451E-4,-4.581489484E-4,-4.581489484E-4
9.213455111E1,6.108652451E-4,-4.581489484E-4,7.635815418E-4
9.218455111E1,6.108652451E-4,-4.581489484E-4,-4.581489484E-4
9.223455111E1,-6.108652451E-4,7.635815418E-4,-4.581489484E-4
9.228455111E1,-4.581489484E-4,1.985311974E-3,7.635815418E-4
9.233455111E1,-1.832595794E-3,7.635815418E-4,-4.581489484E-4
9.238455111E1,-6.108652451E-4,7.635815418E-4,-4.581489484E-4
9.243455111E1,6.108652451E-4,7.635815418E-4,-4.581489484E-4
9.248455111E1,-6.108652451E-4,-4.581489484E-4,-4.581489484E-4
9.253455111E1,6.108652451E-4,-4.581489484E-4,-4.581489484E-4
9.258455111E1,6.108652451E-4,1.985311974E-3,7.635815418E-4
9.263455111E1,6.108652451E-4,-4.581489484E-4,-4.581489484E-4
9.268455111E1,6.108652451E-4,-4.581489484E-4,7.635815418E-4
9.273455111E1,-6.108652451E-4,1.985311974E-3,-4.581489484E-4
9.278455111E1,-6.108652451E-4,-4.581489484E-4,-1.679879380E-3
9.283455111E1,-1.679879380E-3,1.985311974E-3,-4.581489484E-4
9.288455111E1,-1.832595794E-3,-4.581489484E-4,-4.581489484E-4
9.293455111E1,-6.108652451E-4,-4.581489484E-4,-4.581489484E-4
9.298455111E1,-6.108652451E-4,-4.581489484E-4,-4.581489484E-4
9.303455111E1,-6.108652451E-4,7.635815418E-4,-4.581489484E-4
9.308455111E1,6.108652451E-4,-4.581489484E-4,-4.581489484E-4
9.313455111E1,6.108652451E-4,7.635815418E-4,-4.581489484E-4
9.318455111E1,6.108652451E-4,-4.581489484E-4,-1.679879380E-3
9.323455111E1,6.108652451E-4,-1.679879380E-3,7.635815418E-4
9.328455111E1,-6.108652451E-4,7.635815418E-4,7.635815418E-4
9.333455111E1,-6.108652451E-4,7.635815418E-4,7.635815418E-4
9.338455111E1,-6.108652451E-4,-4.581489484E-4,-4.581489484E-4
9.343455111E1,-6.108652451E-4,7.635815418E-4,-4.581489484E-4
9.348455111E1,6.108652451E-4,-4.581489484E-4,-4.581489484E-4
9.353455111E1,-6.108652451E-4,-2.901609987E-3,-4.581489484E-4
9.358455111E1,-6.108652451E-4,-4.581489484E-4,7.635815418E-4
9.363455111E1,6.108652451E-4,-4.581489484E-4,7.635815418E-4
9.368455111E1,-6.108652451E-4,7.635815418E-4,-4.581489484E-4
9.373455111E1,-6.108652451E-4,-1.679879380E-3,7.635815418E-4
9.378455111E1,-6.108652451E-4,-1.679879380E-3,-4.581489484E-4
9.383455111E1,-6.108652451E-4,7.635815418E-4,7.635815418E-4
9.388455111E1,6.108652451E-4,7.635815418E-4,-4.581489484E-4
9.393455111E1,-6.108652451E-4,1.985311974E-3,-4.581489484E-4
9.398455111E1,6.108652451E-4,7.635815418E-4,-4.581489484E-4
9.403455111E1,6.108652451E-4,-4.581489484E-4,-4.581489484E-4
9.408455111E1,6.108652451E-4,-4.581489484E-4,-4.581489484E-4
9.413455111E1,6.108652451E-4,-4.581489484E-4,7.635815418E-4
9.418455111E1,-6.108652451E-4,-1.679879380E-3,-4.581489484E-4
9.423455111E1,-6.108652451E-4,-4.581489484E-4,-4.581489484E-4
9.428455111E1,6.108652451E-4,-1.679879380E-3,-4.581489484E-4
9.433455111E1,6.108652451E-4,1.985311974E-3,7.635815418E-4
9.438455111E1,-6.108652451E-4,7.635815418E-4,-4.581489484E-4
9.443455111E1,-6.108652451E-4,-4.581489484E-4,7.635815418E-4
9.448455111E1,-6.108652451E-4,7.635815418E-4,-4.581489484E-4
9.453455111E1,-6.108652451E-4,1.985311974E-3,-4.581489484E-4
9.458455111E1,6.108652451E-4,7.635815418E-4,-4.581489484E-4
9.463455111E1,6.108652451E-4,7.635815418E-4,7.635815418E-4
9.468455111E1,6.108652451E-4,-4.581489484E-4,-4.581489484E-4
9.473455111E1,-6.108652451E-4,-1.679879380E-3,-4.581489484E-4
9.478455111E1,6.108652451E-4,7.635815418E-4,7.635815418E-4
9.483455111E1,-6.108652451E-4,-4.581489484E-4,-4.581489484E-4
9.488455111E1,-4.581489484E-4,1.985311974E-3,7.635815418E-4
9.493455111E1,-6.108652451E-4,-1.679879380E-3,-4.581489484E-4
9.498455111E1,-1.832595794E-3,7.635815418E-4,-4.581489484E-4
9.503455111E1,-6.108652451E-4,7.635815418E-4,7.635815418E-4
9.508455111E1,6.108652451E-4,7.635815418E-4,7.635815418E-4
9.513455111E1,6.108652451E-4,-4.581489484E-4,-4.581489484E-4
9.518455111E1,6.108652451E-4,7.635815418E-4,-4.581489484E-4
9.523455111E1,-6.108652451E-4,-4.581489484E-4,-4.581489484E-4
9.528455111E1,6.108652451E-4,-4.581489484E-4,7.635815418E-4
9.533455111E1,-6.108652451E-4,-4.581489484E-4,-4.581489484E-4
9.538455111E1,-6.108652451E-4,7.635815418E-4,-4.581489484E-4
9.543455111E1,-6.108652451E-4,-4.581489484E-4,7.635815418E-4
9.548455111E1,6.108652451E-4,1.985311974E-3,-4.581489484E-4
9.553455111E1,-6.108652451E-4,-4.581489484E-4,-4.581489484E-4
9.558455111E1,-6.108652451E-4,-4.581489484E-4,-4.581489484E-4
9.563455111E1,-6.108652451E-4,7.635815418E-4,-4.581489484E-4
9.568455111E1,-6.108652451E-4,-4.581489484E-4,7.635815418E-4
9.573455111E1,-6.108652451E-4,7.635815418E-4,-4.581489484E-4
9.578455111E1,6.108652451E-4,7.635815418E-4,7.635815418E-4
9.583455111E1,6.108652451E-4,9.162978968E-4,7.635815418E-4
9.588455111E1,6.108652451E-4,-3.054326226E-4,7.635815418E-4
9.593455111E1,6.108652451E-4,9.162978968E-4,7.635815418E-4
9.598455111E1,-6.108652451E-4,9.162978968E-4,7.635815418E-4
9.603455111E1,-1.679879380E-3,9.162978968E-4,7.635815418E-4
9.608455111E1,-6.108652451E-4,9.162978968E-4,7.635815418E-4
9.613455111E1,-6.108652451E-4,9.162978968E-4,7.635815418E-4
9.618455111E1,6.108652451E-4,9.162978968E-4,-4.581489484E-4
9.623455111E1,6.108652451E-4,-3.054326226E-4,7.635815418E-4
9.628455111E1,-6.108652451E-4,9.162978968E-4,-4.581489484E-4
9.633455111E1,6.108652451E-4,-3.054326226E-4,-4.581489484E-4
9.638455111E1,6.108652451E-4,9.162978968E-4,7.635815418E-4
9.643455111E1,6.108652451E-4,-3.054326226E-4,-4.581489484E-4
9.648455111E1,-1.832595794E-3,9.162978968E-4,-4.581489484E-4
9.653455111E1,-6.108652451E-4,-3.054326226E-4,7.635815418E-4
9.658455111E1,-6.108652451E-4,-1.527163084E-3,7.635815418E-4
9.663455111E1,6.108652451E-4,-1.527163084E-3,-4.581489484E-4
9.668455111E1,-6.108652451E-4,-3.054326226E-4,-4.581489484E-4
9.673455111E1,6.108652451E-4,-3.054326226E-4,-4.581489484E-4
9.678455111E1,6.108652451E-4,-3.054326226E-4,-4.581489484E-4
9.683455111E1,6.108652451E-4,-1.527163084E-3,-4.581489484E-4
9.688455111E1,6.108652451E-4,9.162978968E-4,7.635815418E-4
9.693455111E1,-6.108652451E-4,9.162978968E-4,-4.581489484E-4
9.698455111E1,-6.108652451E-4,-3.054326226E-4,-4.581489484E-4
9.703455111E1,-1.832595794E-3,9.162978968E-4,-4.581489484E-4
9.708455111E1,6.108652451E-4,-1.527163084E-3,-4.581489484E-4
9.713455111E1,6.108652451E-4,-3.054326226E-4,7.635815418E-4
9.718455111E1,1.832595794E-3,-3.054326226E-4,-4.581489484E-4
9.723455111E1,-6.108652451E-4,9.162978968E-4,-4.581489484E-4
